Tiempo(s),IMU1_AccX,IMU1_AccY,IMU1_AccZ,IMU1_GyrX,IMU1_GyrY,IMU1_GyrZ,IMU2_AccX,IMU2_AccY,IMU2_AccZ,IMU2_GyrX,IMU2_GyrY,IMU2_GyrZ
0.0005562305450439453,-0.727874,-9.155894,2.906709,-0.061228,0.063505,0.019628,-1.245048,-8.878152,3.61064,-0.042911,0.031424,-0.022114
0.001641988754272461,-0.718297,-9.179837,2.748684,-0.053106,0.056448,0.021625,-1.087023,-8.935616,3.323321,-0.039449,0.001463,-0.020383
0.002521514892578125,-0.842802,-9.136739,2.76305,-0.02421,0.055915,0.030547,-1.383919,-8.858997,3.476558,-0.007224,0.035419,-0.008798
0.002521514892578125,-0.684777,-9.184626,2.638545,-0.017019,0.03674,0.02056,-1.355187,-8.700973,3.648949,0.014614,0.033555,0.007448
0.003530263900756836,-0.785338,-9.194203,2.44221,-0.05204,0.053119,0.038537,-1.158853,-8.949982,3.103044,-0.03825,0.005591,-9e-06
0.003530263900756836,-1.000827,-9.088853,2.346437,-0.018218,0.065236,0.049855,-1.436594,-8.854209,2.97375,-0.003762,0.041811,0.012108
0.004984140396118164,-1.015193,-9.208569,2.250664,0.012809,0.043398,0.018829,-1.546733,-8.940405,2.877977,0.021938,0.031691,-0.015855
0.004984140396118164,-0.972095,-9.194203,2.226721,0.077258,0.048725,0.006045,-1.312089,-8.978714,2.882766,0.073072,-0.000401,-0.02997
0.005988121032714844,-1.249837,-9.117584,2.260242,0.095501,0.091336,0.008842,-1.69997,-8.844632,2.954596,0.10756,0.077498,-0.028239
0.006989240646362305,-1.144487,-9.328285,2.269819,0.124264,0.066435,-0.036433,-1.685604,-9.09843,2.69122,0.124738,0.033022,-0.064459
0.007987737655639648,-0.430978,-9.002657,3.136564,0.176729,0.010774,-0.071986,-0.775761,-8.696184,3.797397,0.184926,-0.061788,-0.097483
0.007987737655639648,-0.60337,-9.012235,3.280223,0.159418,0.041933,-0.031373,-1.16843,-8.710549,3.912325,0.16402,0.01984,-0.059798
0.00948953628540039,-0.60337,-9.20378,3.39994,0.169005,0.025288,-0.058271,-1.115755,-8.878152,4.012887,0.165884,-0.013184,-0.080837
0.00948953628540039,-0.397458,-9.108007,3.821341,0.208288,-0.042357,-0.081441,-0.962518,-8.782379,4.573158,0.198242,-0.065782,-0.099879
0.010493040084838867,-0.124505,-9.108007,3.955423,0.176329,-0.069255,-0.062399,-0.502808,-8.734493,4.755127,0.174806,-0.12677,-0.083501
0.011493921279907227,-0.172391,-9.069698,4.065562,0.097099,-0.030905,0.001385,-0.641679,-8.811111,4.630622,0.026998,-0.035688,-0.002806
0.012139558792114258,-0.512385,-9.136739,3.854861,-0.031134,0.046727,0.060774,-1.101389,-8.796745,4.606679,-0.021738,0.029028,0.021962
0.012139558792114258,-0.579426,-9.227723,3.586697,-0.07774,0.050456,0.051986,-1.000827,-8.902096,4.31936,-0.070874,0.006923,0.009445
0.013143301010131836,-0.828436,-9.198992,3.50529,-0.102774,0.044463,0.065035,-1.427017,-8.863787,4.281051,-0.09471,0.033289,0.024226
0.01414632797241211,-0.723086,-9.189414,3.356842,-0.123547,0.019296,0.039868,-1.211528,-8.868575,4.03683,-0.118279,-0.015981,0.00079
0.015146255493164062,-0.656045,-9.198992,3.112621,-0.129273,0.019429,0.028283,-1.235471,-8.897306,3.816552,-0.115749,-0.017712,-0.009597
0.015649795532226562,-0.622524,-9.036178,2.954596,-0.110764,0.046061,0.016032,-0.943364,-8.662663,3.366419,-0.098439,0.019973,-0.026641
0.015649795532226562,-0.63689,-8.945193,2.499674,-0.121417,0.085077,0.044662,-1.0966,-8.686606,3.103044,-0.105629,0.054062,-0.003471
0.016653060913085938,-0.871534,-8.854209,2.288974,-0.078672,0.106649,0.062505,-1.259414,-8.60041,2.916286,-0.064083,0.059921,0.013972
0.01778101921081543,-0.8859,-8.873363,2.485308,-0.012092,0.050589,0.052651,-1.364764,-8.629143,3.007271,-0.006958,0.014646,0.015837
0.01778101921081543,-0.670411,-9.069698,2.734318,0.043569,-0.013461,0.027884,-1.144487,-8.768013,3.299378,0.03339,-0.041281,-0.003072
0.018991947174072266,-0.737452,-9.09843,2.968961,0.084449,0.021693,0.039069,-1.125332,-8.8159,3.615429,0.080529,-0.010787,0.003453
0.019995927810668945,-0.699143,-9.227723,3.136564,0.082718,-0.007203,0.044529,-1.197162,-8.830266,4.127814,0.07973,-0.045143,0.008513
0.019995927810668945,-0.560272,-9.060121,3.57712,0.048229,-0.027443,0.024422,-1.072657,-8.739282,4.338514,0.05363,-0.066182,-0.003605
0.020995140075683594,-0.450133,-9.021811,3.658527,0.015738,-0.031038,0.022291,-0.976884,-8.700973,4.295417,0.022071,-0.075769,-0.006135
0.021593570709228516,-0.56506,-9.074487,3.356842,-0.003037,-0.003874,0.039069,-1.029559,-8.74407,3.835706,0.011152,-0.061388,0.007714
0.022220373153686523,-0.24901,-8.99308,3.567542,0.009213,-0.063529,0.042132,-0.579426,-8.681818,4.209221,0.00769,-0.094146,0.015437
0.022220373153686523,-0.344783,-9.045755,3.510078,-0.016487,-0.018921,0.076354,-0.761395,-8.739282,4.338514,-0.014015,-0.032759,0.040871
0.022220373153686523,-0.809281,-9.122374,3.194028,-0.044983,0.06284,0.115903,-1.27378,-8.811111,3.821341,-0.011219,-0.007858,0.054453
0.022220373153686523,-0.38788,-9.09843,3.265857,-0.015821,-0.027976,0.065435,-0.914632,-8.777591,3.974577,-0.012417,-0.05766,0.035411
0.02513861656188965,-0.320839,-9.021811,3.299378,-0.033265,0.008777,0.079949,-0.70872,-8.710549,4.113448,-0.026399,-0.036754,0.042202
0.02513861656188965,-0.517174,-9.036178,3.227548,-0.065356,0.048591,0.115769,-0.900266,-8.720127,3.888382,-0.060621,0.008121,0.072563
0.026641130447387695,-0.718297,-9.093641,3.356842,-0.058965,0.045396,0.136676,-1.130121,-8.758436,3.974577,-0.064216,0.026498,0.093869
0.027643918991088867,-0.981673,-9.165471,3.443038,-0.069085,0.051388,0.136676,-1.52279,-8.897306,4.156546,-0.082459,0.01438,0.070566
0.02854609489440918,-1.010405,-9.251667,3.457403,-0.077474,0.030748,0.106581,-1.359976,-8.868575,4.348092,-0.086321,-0.003996,0.055518
0.029091835021972656,-1.192373,-9.237301,3.29459,-0.139793,0.079351,0.102986,-1.661661,-8.897306,4.060773,-0.128,0.053263,0.057649
0.029091835021972656,-1.441383,-9.122374,3.0791,-0.145252,0.083346,0.090336,-2.001655,-8.8159,3.816552,-0.135457,0.064182,0.046863
0.03009486198425293,-1.264203,-9.155894,2.949807,-0.138861,0.029949,0.045461,-1.786165,-8.830266,3.591486,-0.134924,-0.004529,0.006249
0.031095027923583984,-1.039137,-9.155894,2.820513,-0.112095,0.023557,0.01044,-1.570676,-8.863787,3.486135,-0.11242,-0.010121,-0.027307
0.03157472610473633,-0.976884,-9.127162,2.676854,-0.085064,0.044863,-0.00807,-1.398285,-8.825478,3.337687,-0.04837,0.013315,-0.056602
0.03157472610473633,-0.857168,-9.112796,2.662488,-0.048578,0.034343,-0.018855,-1.312089,-8.806323,3.423883,-0.039449,-0.005594,-0.056469
0.03322005271911621,-0.847591,-9.175049,2.662488,-0.038058,0.045662,-0.022184,-1.326455,-8.892518,3.285012,-0.036386,0.003461,-0.058866
0.03322005271911621,-0.895477,-9.175049,2.76305,-0.016753,0.06497,-0.036166,-1.34561,-8.858997,3.476558,-0.011885,0.025299,-0.074579
0.03322005271911621,-0.838013,-9.218146,2.791781,-0.011693,0.041268,-0.040694,-1.206739,-8.940405,3.419094,-0.011219,0.005059,-0.080172
0.03527522087097168,-0.948152,-9.117584,2.834879,0.001756,0.055383,-0.044422,-1.27378,-8.854209,3.466981,0.011019,-0.003197,-0.107736
0.03527522087097168,-0.727874,-9.09843,2.949807,0.031318,0.033678,-0.074916,-1.24026,-8.801534,3.572331,0.035121,-0.004529,-0.105605
0.03668713569641113,-0.469287,-8.997869,3.227548,0.07353,-0.008667,-0.078245,-0.967307,-8.715339,3.897959,0.072539,-0.045542,-0.108268
0.03769111633300781,-0.407035,-8.88773,3.366419,0.077391,-0.037164,-0.06626,-0.909843,-8.614777,4.089505,0.082526,-0.071508,-0.092689
0.03769111633300781,-0.114928,-8.954771,3.43346,0.049694,-0.054075,-0.063597,-0.536328,-8.633931,4.156546,0.054296,-0.094012,-0.089493
0.039153099060058594,-0.124505,-9.017023,3.514867,0.026258,-0.026378,-0.018323,-0.593792,-8.686606,4.223587,0.028197,-0.048072,-0.05354
0.039153099060058594,-0.167603,-9.021811,3.620217,-0.00104,-0.002143,0.014701,-0.694354,-8.700973,4.376824,-0.040647,-0.016247,0.019166
0.04015398025512695,-0.550694,-9.031389,3.32811,-0.073879,0.045129,0.091401,-0.948152,-8.729704,4.003309,-0.067812,0.010385,0.047529
0.04115152359008789,-0.723086,-9.146317,3.112621,-0.069484,0.057913,0.080482,-1.302512,-8.791957,3.945845,-0.063684,0.045806,0.044999
0.04149937629699707,-0.694354,-9.20378,3.036002,-0.050043,0.032213,0.059176,-1.178007,-8.906884,3.701624,-0.053297,-0.005061,0.020497
0.04149937629699707,-0.74224,-9.122374,3.083889,-0.032998,0.035941,0.058244,-1.221105,-8.791957,3.878804,-0.030127,0.00426,0.020897
0.04149937629699707,-0.775761,-9.175049,2.906709,-0.049643,0.04939,0.055581,-1.374342,-8.801534,3.61064,-0.029861,0.022636,0.016902
0.04149937629699707,-0.842802,-9.122374,2.968961,-0.032732,0.049124,0.051453,-1.192373,-8.791957,3.739934,-0.023336,0.001064,-0.011195
0.04431271553039551,-0.493231,-9.13195,3.007271,-0.025009,0.029416,0.020294,-0.972095,-8.844632,3.768666,-0.021872,-0.015981,-0.016521
0.045351505279541016,-0.617736,-9.170259,2.983327,-0.027406,0.068432,0.031479,-1.058291,-8.858997,3.730356,-0.022537,0.033555,-0.009996
0.045351505279541016,-0.785338,-9.184626,3.036002,-0.016087,0.073226,0.034009,-1.235471,-8.892518,3.735145,-0.016412,0.047537,-0.004137
0.046774864196777344,-0.718297,-9.175049,3.160507,-0.017552,0.038205,0.009374,-1.288146,-8.878152,3.845284,-0.016945,0.02703,-0.021315
0.04777860641479492,-0.416612,-9.151105,3.280223,-0.025675,0.010241,-0.000346,-0.933786,-8.787168,3.965,-0.03572,0.006657,-0.010129
0.04777860641479492,-0.498019,-9.093641,3.165296,-0.048844,0.051787,0.031612,-1.115755,-8.700973,3.78782,-0.047438,0.036618,-0.001075
0.04877758026123047,-0.555483,-9.06491,2.968961,-0.07055,0.03421,0.030147,-1.082234,-8.768013,3.625006,-0.068344,0.010918,-0.006002
0.04877758026123047,-0.574638,-9.127162,3.083889,-0.040589,0.028085,0.031346,-1.091812,-8.801534,3.720779,-0.049569,0.008121,-0.006934
0.0499415397644043,-0.593792,-9.108007,3.198817,-0.02128,0.050988,0.019761,-1.029559,-8.796745,3.988943,-0.024002,0.025299,-0.018918
0.05124521255493164,-0.574638,-9.155894,3.189239,-0.053106,0.028617,0.031612,-1.087023,-8.820688,4.03683,-0.045574,0.006524,-0.008931
0.05165410041809082,-0.617736,-9.160683,2.992905,-0.062427,0.048325,0.04626,-1.125332,-8.739282,3.773454,-0.032391,0.017842,0.012641
0.05275535583496094,-0.675199,-9.06491,3.016848,-0.037792,0.053119,0.052918,-1.130121,-8.8159,3.562754,-0.022271,0.003195,0.010777
0.05275535583496094,-0.718297,-9.084064,3.0791,0.002555,0.053385,0.038803,-1.201951,-8.796745,3.739934,0.006492,0.020772,0.003187
0.05275535583496094,-0.569849,-9.088853,3.126987,-0.015022,0.040336,0.028816,-1.091812,-8.734493,3.945845,-0.009088,0.006524,-0.007067
0.05275535583496094,-0.38788,-9.060121,3.074312,-0.037925,0.049657,0.034409,-0.928998,-8.739282,4.03683,-0.036919,0.017975,-0.008398
0.05527472496032715,-0.411824,-9.127162,2.940229,-0.042453,0.058445,0.038004,-1.091812,-8.878152,3.61064,-0.045707,0.038216,-0.001341
0.05527472496032715,-0.517174,-9.0266,2.968961,-0.02128,0.068832,0.044396,-0.799704,-8.710549,3.763877,-0.025467,0.020772,0.012375
0.056740522384643555,-0.421401,-9.040966,3.026425,-0.033931,0.043132,0.050255,-0.857168,-8.806323,3.677681,-0.031459,0.011717,0.031017
0.057744741439819336,-0.617736,-8.959559,3.15093,-0.005834,0.052853,0.086341,-1.120543,-8.619565,3.888382,-0.004694,0.038349,0.047129
0.057744741439819336,-0.550694,-9.093641,3.031214,-0.02927,0.019563,0.074889,-0.972095,-8.787168,3.658527,-0.033989,-0.010255,0.038474
0.05924558639526367,-0.574638,-9.050544,3.208394,-0.010095,0.011173,0.093265,-0.967307,-8.734493,3.917114,-0.017877,-0.007991,0.051657
0.05924558639526367,-0.74224,-9.160683,3.270646,-0.019283,0.020628,0.121495,-1.259414,-8.772802,4.079927,-0.019874,0.005458,0.083083
0.06024909019470215,-0.751818,-9.179837,3.304167,-0.020748,0.004915,0.118566,-1.513213,-8.844632,4.094294,-0.013616,0.016644,0.078022
0.06134295463562012,-0.818859,-9.198992,3.371208,-0.019017,0.029816,0.110043,-0.775761,-8.882941,4.065562,-0.030527,-0.106529,0.156187
0.06134295463562012,-0.928998,-9.165471,3.165296,-0.107834,0.108247,0.145997,-1.834052,-8.882941,4.405556,-0.093778,0.271778,0.129023
0.06134295463562012,-1.144487,-9.184626,2.949807,-0.131271,0.093999,0.127887,-1.661661,-8.897306,3.701624,-0.126669,-0.004928,0.074161
0.07516694068908691,-0.952941,-9.103219,2.777416,-0.119952,0.090271,0.093265,-1.316878,-8.753648,3.452615,-0.111755,0.025965,0.054986
0.09881472587585449,-1.082234,-9.031389,2.667277,-0.096116,0.103054,0.088472,-1.527578,-8.791957,3.299378,-0.100436,0.079362,0.042735
0.12199807167053223,-1.039137,-9.146317,2.648122,-0.068685,0.061641,0.058644,-1.211528,-8.844632,3.625006,-0.037584,-0.028631,0.001056
0.1471881866455078,-0.646467,-9.141528,2.863611,-0.023278,-0.00414,0.039735,-1.110966,-8.835054,3.553176,-0.0256,-0.006792,0.018234
0.17064809799194336,-0.928998,-9.175049,2.79657,-0.0314,0.065103,0.065834,-1.374342,-8.902096,3.428672,-0.030527,0.047537,0.03115
0.1942760944366455,-0.871534,-9.045755,3.04558,0.002822,0.03421,0.044928,-1.494058,-8.801534,3.68247,-0.005093,0.03715,0.01597
0.2179710865020752,-0.632101,-9.079275,3.179662,-0.000241,0.015834,0.031745,-1.139698,-8.748858,3.912325,-0.00243,-0.015315,-0.00467
0.24180865287780762,-0.612947,-9.069698,3.146141,-0.012359,0.050189,0.061174,-0.976884,-8.758436,3.917114,-0.009354,-0.005195,0.013972
0.2653388977050781,-0.833225,-8.983502,3.265857,-0.013158,0.055649,0.089537,-1.331244,-8.710549,4.041618,-0.029195,-0.001999,0.042469
0.2886497974395752,-0.933786,-9.20378,3.059946,-0.056967,0.059244,0.083811,-1.336033,-8.858997,3.811763,-0.053963,0.017043,0.038074
0.3115050792694092,-1.091812,-9.194203,3.040791,-0.042186,0.057779,0.091401,-1.537156,-8.911673,3.68247,-0.04584,0.02996,0.052456
0.3336336612701416,-1.221105,-9.198992,3.098255,-0.038192,0.068832,0.066367,-1.781377,-8.88773,3.692047,-0.036519,0.049667,0.034213
0.3555619716644287,-1.225894,-9.266033,2.834879,-0.038857,0.056448,0.047858,-1.518001,-8.959559,3.495713,-0.040381,0.008255,0.008779
0.3789966106414795,-1.043925,-9.198992,3.112621,-0.024609,0.025022,0.045461,-1.470115,-8.835054,3.979366,-0.02307,0.009586,0.010111
0.4049348831176758,-1.178007,-9.218146,2.983327,-0.057633,0.049923,0.041999,-1.613774,-8.940405,3.620217,-0.043443,-0.004529,-0.015989
0.42887210845947266,-0.833225,-9.141528,2.949807,-0.057367,0.021693,-0.00261,-1.37913,-8.801534,3.759088,-0.044509,-0.019043,-0.034897
0.45021533966064453,-0.732663,-9.093641,2.834879,-0.064957,0.044463,0.00032,-1.173219,-8.796745,3.668104,-0.058224,-0.010787,-0.041023
0.4751746654510498,-0.790127,-9.031389,2.791781,-0.052173,0.050323,0.002317,-1.288146,-8.787168,3.390362,-0.055428,0.009719,-0.034098
0.4988734722137451,-0.622524,-9.050544,2.820513,-0.024876,0.012372,-0.00807,-1.110966,-8.739282,3.409517,-0.029462,-0.021973,-0.043153
0.5231332778930664,-0.502808,-9.050544,2.849245,-0.005301,-0.00414,0.017231,-1.216316,-8.758436,3.50529,-0.002563,0.000931,0.011442
0.5466277599334717,-0.909843,-9.007445,2.786993,-0.012092,0.035275,0.047458,-1.618563,-8.705761,3.481347,0.006225,0.027829,-0.022913
0.5700321197509766,-0.723086,-9.06491,2.662488,0.002955,0.00638,-0.030174,-1.321667,-8.715339,3.601063,0.005426,-0.036887,-0.061396
0.5916097164154053,-0.541117,-8.906884,3.098255,0.092971,-0.023315,0.06397,-0.794915,-8.720127,3.342476,0.057226,-0.129433,0.004385
0.6167190074920654,-0.933786,-9.050544,2.696008,0.047297,0.077354,0.055847,-1.393496,-8.782379,3.32811,0.080795,0.030093,0.037808
0.6406557559967041,-0.833225,-9.017023,2.954596,0.094169,-0.011996,0.057845,-1.642506,-8.878152,3.280223,0.080529,-0.00839,0.028354
0.6610519886016846,-0.498019,-9.031389,3.021636,0.087645,-0.02185,0.02855,-1.398285,-8.53337,3.998521,0.065881,0.004127,0.028354
0.6851842403411865,-0.790127,-8.854209,3.194028,0.054355,0.01357,0.057179,-0.928998,-8.590834,3.965,0.001565,-0.032359,-0.029571
0.7098150253295898,-0.483653,-8.906884,3.395151,0.02719,0.018231,0.027751,-0.905054,-8.643509,3.811763,0.000233,-0.037952,-0.017986
0.7335774898529053,-0.656045,-9.112796,3.36163,0.033182,0.060709,0.090868,-0.900266,-8.629143,4.194855,0.040181,0.007988,0.034879
0.7572920322418213,-0.948152,-8.916462,3.620217,0.013075,0.044996,0.139339,-1.403074,-8.499849,4.668931,0.028862,0.035686,0.105187
0.7806980609893799,-0.890688,-9.136739,3.414306,-0.120218,0.048458,0.094197,-1.245048,-8.763225,4.060773,-0.11788,0.032357,0.058448
0.8003740310668945,-1.245048,-9.313919,3.423883,-0.115824,0.089738,0.107247,-1.398285,-9.040966,4.051196,-0.106029,-0.002132,0.053654
0.8277454376220703,-1.019982,-9.323497,3.567542,-0.074544,0.056315,0.100456,-1.814897,-8.715339,4.731184,-0.072339,0.077498,0.093336
0.8500311374664307,-1.388708,-9.232512,3.404728,-0.217691,0.115571,0.132414,-1.604197,-8.868575,4.14218,-0.195779,0.051532,0.079221
0.8749110698699951,-1.738279,-9.38096,3.107832,-0.302514,0.097994,0.108179,-2.389535,-8.935616,3.998521,-0.287792,0.149804,0.0695
0.8974974155426025,-1.589831,-9.52462,2.710374,-0.296123,-0.011331,0.053051,-2.049541,-9.198992,3.227548,-0.333067,-0.030096,0.0181
0.9190223217010498,-1.484481,-9.376172,2.743895,-0.187198,-0.054075,0.032811,-2.039964,-9.155894,3.390362,-0.224541,-0.046607,0.002787
0.9449565410614014,-1.383919,-9.170259,2.806147,-0.124879,-0.025579,-0.017124,-1.800531,-8.734493,3.854861,-0.143846,-0.041547,-0.112263
0.9686849117279053,-1.125332,-9.155894,2.753472,-0.183203,-0.012662,-0.081174,-1.187585,-9.060121,2.992905,-0.21522,-0.136224,-0.114261
0.9920060634613037,-0.756606,-9.160683,2.33686,-0.127542,-0.003341,-0.032704,-1.197162,-8.964348,2.940229,-0.142648,-0.066448,-0.074845
1.0151262283325195,-0.761395,-9.069698,2.317705,-0.058698,0.035808,-0.021119,-1.264203,-8.844632,2.964173,-0.074736,-0.004396,-0.063527
1.039306640625,-0.876322,-8.902096,2.537983,-0.001972,0.02156,0.006711,-1.06308,-8.796745,2.786993,-0.013882,-0.023571,-0.041688
1.0632226467132568,-0.74224,-9.127162,2.533195,-0.029669,0.000654,-0.007537,-1.154064,-8.949982,3.107832,-0.03066,-0.062054,-0.035563
1.085395336151123,-0.675199,-9.079275,2.652911,-0.015554,-0.041158,0.004847,-1.158853,-8.806323,3.25628,-0.013349,-0.042879,-0.020383
1.109128713607788,-0.770972,-9.165471,2.648122,0.042903,0.03208,-0.010067,-1.336033,-8.930827,3.064734,0.011285,-0.007059,-0.0325
1.1324810981750488,-1.101389,-8.973926,3.036002,0.095901,0.08814,-0.077712,-2.001655,-8.715339,3.61064,0.085589,0.043409,-0.086697
1.1554410457611084,-0.450133,-9.146317,3.04558,0.052757,0.033678,-0.120057,-0.574638,-8.772802,3.874016,0.067878,-0.079098,-0.192159
1.1787207126617432,-0.900266,-9.103219,2.911498,-0.022745,-0.006004,0.053184,-1.178007,-8.830266,3.850073,0.009954,-0.038085,-0.035297
1.2001192569732666,-1.230682,-9.021811,2.983327,-0.04232,0.000654,0.094597,-1.704759,-8.911673,3.591486,-0.031459,0.048336,0.011842
1.2260496616363525,-1.110966,-9.333074,2.810936,-0.03726,0.060576,0.034542,-1.527578,-9.079275,3.50529,0.000499,-0.007725,0.003453
1.2501144409179688,-1.058291,-9.242089,3.131775,-0.012225,-0.001344,0.046792,-1.656872,-8.849421,3.912325,0.009554,0.002262,0.018633
1.2728826999664307,-0.962518,-9.285188,3.155719,-0.028338,-0.012929,0.037738,-1.312089,-9.074487,3.759088,-0.040248,-0.033425,0.004651
1.2960283756256104,-0.895477,-9.361806,3.083889,-0.072946,-0.011863,0.022824,-1.623351,-8.926039,4.185278,-0.057425,0.025166,-0.000409
1.3188374042510986,-0.842802,-9.328285,2.748684,-0.085064,-0.023848,0.035341,-1.029559,-9.179837,3.265857,-0.104298,-0.07537,-0.014657
1.3426895141601562,-0.972095,-9.031389,2.825302,-0.032998,-0.016391,0.053584,-1.383919,-8.844632,3.404728,-0.020007,-0.020508,-0.037827
1.3667755126953125,-0.703931,-9.155894,2.719952,-0.025941,0.044463,-0.019654,-1.005616,-8.811111,3.639372,-0.008556,-0.00626,-0.067255
1.3893933296203613,-0.723086,-9.151105,2.590658,-0.04192,0.03967,0.029082,-1.082234,-8.88773,3.194028,-0.034655,0.00386,-0.022647
1.4135513305664062,-0.679988,-9.112796,2.69122,0.023195,0.052853,-0.008602,-1.479692,-8.983502,2.930652,-0.006159,0.007322,-0.025709
1.436908483505249,-0.833225,-8.983502,3.103044,0.070334,0.024489,0.014967,-1.216316,-8.734493,3.543599,0.072139,-0.003597,-0.040357
1.4595582485198975,-0.651256,-9.222935,2.854034,-0.013291,0.017432,0.000985,-1.154064,-8.849421,3.720779,0.01022,0.018242,-0.031568
1.4838316440582275,-0.737452,-9.179837,2.79657,0.000558,0.047659,0.026153,-1.383919,-8.849421,3.514867,0.017144,0.034887,0.010244
1.5073983669281006,-0.957729,-9.136739,2.892343,0.004686,0.076422,0.057845,-1.288146,-8.844632,3.677681,0.014348,0.041944,0.013972
1.5306172370910645,-1.029559,-9.222935,2.997693,0.000292,0.093466,0.055581,-1.393496,-8.945193,3.61064,0.005027,0.082158,0.014106
1.5507068634033203,-1.034348,-9.20378,3.227548,-0.024876,-0.033835,0.052385,-1.695181,-8.825478,4.027253,-0.01042,0.048735,0.024492
1.577270746231079,-0.694354,-9.222935,3.217971,-0.061628,-0.065793,0.020826,-1.158853,-8.868575,4.123025,-0.057026,-0.091083,-0.006002
1.6001663208007812,-0.933786,-9.289976,2.945018,-0.107968,0.017299,0.039602,-1.331244,-8.978714,3.672893,-0.094444,-0.031427,0.000124
1.622718334197998,-1.02477,-9.361806,2.715163,-0.067221,0.140472,-0.033636,-1.173219,-8.935616,3.768666,-0.001232,0.048469,-0.167258
1.647158145904541,-0.646467,-9.146317,2.844457,-0.01662,0.250995,-0.102613,-0.976884,-8.758436,3.486135,-0.027464,-0.01092,-0.092822
1.6709675788879395,-0.972095,-9.20378,2.446999,-0.087727,0.086808,0.066101,-1.192373,-8.935616,3.093466,-0.070741,0.065913,0.002254
1.6947619915008545,-1.005616,-9.170259,2.552349,-0.031267,0.019163,0.05638,-1.7718,-8.868575,3.146141,-0.041579,0.064049,0.033946
1.7178733348846436,-0.962518,-9.127162,2.638545,0.005618,0.023691,0.016565,-1.211528,-8.935616,3.15093,-0.014415,-0.01931,-0.009197
1.7422637939453125,-0.852379,-9.045755,2.72474,0.02466,0.027419,-0.01566,-1.340821,-8.835054,3.443038,0.000766,0.002262,-0.057534
1.7664475440979004,-0.804493,-9.13195,2.743895,0.006151,0.014769,-0.023117,-1.106178,-8.844632,3.39994,-0.022271,-0.022505,-0.066989
1.7894060611724854,-0.56506,-9.06491,2.916286,0.000691,0.0161,-0.026179,-0.723086,-8.734493,3.835706,-0.03572,-0.022772,-0.041688
1.8136229515075684,-1.125332,-8.677029,3.36163,-0.082001,0.107715,-0.052279,-1.891516,-8.552525,3.902748,-0.091248,0.095208,-0.04555
1.8363966941833496,-0.766184,-9.266033,2.897132,-0.303846,0.074158,-0.221925,-1.637717,-8.691395,4.237953,-0.330936,0.114117,-0.259538
1.8595080375671387,-0.445344,-9.457579,3.059946,-0.362303,0.076688,-0.225653,-0.962518,-8.954771,3.941057,-0.534272,-0.129566,-0.322789
1.8845863342285156,-0.737452,-9.294765,3.021636,-0.382943,0.248332,-0.191431,-1.73349,-8.849421,4.678508,-0.761975,0.316387,-0.380315
1.907801866531372,-0.804493,-9.414481,2.719952,-0.579221,0.33129,-0.243097,-0.416612,-9.467155,1.781377,-0.918172,-0.045276,-0.444498
1.931244134902954,-0.464499,-9.409692,2.356014,-0.515304,0.232885,-0.203815,-1.106178,-9.112796,3.371208,-0.767568,0.250473,-0.383111
1.9552500247955322,-0.694354,-9.246878,2.279396,-0.449789,0.146065,-0.089963,0.028732,-9.414481,2.025598,-0.702186,-0.124639,-0.268726
1.979065179824829,-0.42619,-9.318707,2.437422,-0.438604,0.180287,-0.088365,-1.297723,-8.940405,3.165296,-0.481274,0.360596,-0.182572
2.000577688217163,-0.56506,-9.59645,1.800531,-0.466834,0.173762,-0.018989,-1.470115,-9.414481,2.212355,-0.433469,0.346215,-0.044751
2.026242733001709,-0.751818,-9.534197,2.044752,-0.302514,0.243271,0.002184,-0.498019,-9.620393,1.752645,-0.324278,0.070041,-0.077375
2.0486836433410645,-0.545906,-9.572506,1.968134,-0.188396,0.176159,-0.002477,-0.732663,-9.471945,2.183623,-0.14105,0.132093,-0.025709
2.072554588317871,-0.713508,-9.385749,1.776588,-0.154707,0.186945,0.035341,-1.058291,-9.160683,2.767838,-0.110157,0.157793,-0.017853
2.0955560207366943,-0.392669,-9.443213,1.767011,-0.133534,0.126756,0.01044,-0.478865,-9.414481,1.810109,-0.163021,0.025832,-0.043952
2.119259834289551,-0.560272,-9.582084,1.599408,-0.050842,0.181618,0.02815,-1.077446,-9.476733,1.647295,-0.066347,0.105195,-0.031302
2.139496088027954,-0.478865,-9.467155,1.929825,0.031318,0.261648,-0.049749,-0.948152,-9.198992,2.360803,0.066014,0.182295,-0.20947
2.1676456928253174,-0.881111,-9.213358,2.164469,0.008015,0.33169,-0.070788,-1.695181,-9.582084,1.642506,0.022737,0.26006,-0.249019
2.191847801208496,-0.349571,-9.457579,1.661661,0.284855,0.008377,-0.218729,-0.454922,-9.620393,1.34561,0.331269,0.049667,-0.390302
2.215151071548462,0.469287,-9.361806,2.700797,0.358093,0.064038,-0.158274,0.134082,-9.069698,3.241914,0.502912,0.009453,-0.270724
2.235154628753662,-0.076618,-9.155894,2.964173,0.197369,0.308786,0.025753,0.952941,-9.232512,3.189239,0.536469,0.486832,-0.167791
2.2614309787750244,-0.804493,-9.428846,2.26503,-0.082933,0.433824,0.137075,-1.484481,-9.155894,2.815725,0.096508,0.576981,0.065505
2.285198211669922,-1.048714,-9.697011,1.465326,-0.210501,0.296669,0.08421,-0.914632,-9.309131,1.987289,-0.011352,0.238622,-0.073913
2.309473991394043,-0.809281,-9.261244,1.546733,-0.02927,0.181352,-0.035367,-2.121371,-9.625181,0.292107,0.090382,0.208394,-0.190695
2.3323428630828857,-0.344783,-9.189414,2.490097,0.304429,-0.069921,-0.261739,-0.296896,-8.787168,3.830918,0.247511,-0.140219,-0.354215
2.3563642501831055,-0.062252,-9.625181,2.039964,0.041438,-0.108271,-0.135104,0.086196,-9.261244,2.873188,0.007557,-0.140086,-0.272987
2.3791866302490234,-0.167603,-8.930827,2.863611,0.191376,-0.02731,-0.097287,-0.052675,-9.175049,2.935441,0.034056,-0.185227,-0.194689
2.400662660598755,0.215489,-9.414481,2.37038,-0.142456,0.078286,-0.054143,0.373515,-9.433636,2.739106,-0.39432,-0.065516,-0.116524
2.4254236221313477,-0.574638,-9.409692,2.197989,-0.245788,0.291875,0.039735,-1.149275,-9.266033,2.360803,-0.252505,0.364724,-0.106138
2.4503774642944336,-0.330417,-9.653913,1.886727,-0.212765,0.259517,0.031346,0.076618,-9.198992,3.050368,-0.264489,-0.06738,-0.120386
2.4738996028900146,-0.062252,-9.457579,1.901093,-0.25724,0.183749,-0.007004,-0.842802,-8.964348,2.686431,-0.188987,0.383766,-0.12478
2.4970827102661133,-0.330417,-9.289976,2.116582,-0.077074,0.168835,0.041466,0.60337,-9.529408,1.326455,-0.203236,-0.156598,-0.055271
2.5209662914276123,-0.445344,-9.658702,1.570676,-0.10384,0.194668,0.108312,-0.732663,-9.27561,2.413478,0.084657,0.12224,0.15166
2.5396206378936768,-1.082234,-9.155894,2.174046,-0.03979,0.1956,0.133879,-1.355187,-9.194203,2.686431,-0.032658,0.383233,0.043268
2.5676651000976562,-0.756606,-9.66349,1.80532,-0.198783,0.04473,0.031346,-0.469287,-9.653913,1.767011,-0.16382,-0.133295,-0.035696
2.5908474922180176,-0.181969,-9.744898,1.59462,0.074062,-0.015059,-0.00474,0.009577,-9.610815,1.7718,0.083325,-0.044743,-0.029438
2.609705924987793,-0.296896,-8.839843,2.911498,0.359957,-0.023448,0.042798,-0.134082,-9.093641,2.509251,0.510103,0.045939,0.070432
2.637479066848755,0.100562,-9.41927,2.260242,0.046898,-0.051545,0.040933,-0.45971,-8.940405,3.830918,0.47122,0.501346,0.06444
2.6615653038024902,0.043098,-9.395327,2.681643,-0.051108,0.033278,0.117234,-0.507597,-9.213358,3.466981,0.040314,0.342353,0.138344
2.6852645874023438,-0.335205,-9.491099,2.466153,-0.152177,0.195733,0.134412,-0.660833,-9.414481,2.887554,-0.08712,0.291886,0.158318
2.707564353942871,-0.569849,-9.711377,1.87715,-0.242726,0.130485,0.190872,-0.498019,-9.486311,2.241087,-0.034389,0.087884,0.235551
2.731116533279419,-0.632101,-9.34744,1.403074,-0.008896,0.029416,0.170365,-1.340821,-9.09843,2.130948,0.158028,0.130496,0.244206
2.755166530609131,-0.675199,-8.988291,1.920248,0.130789,-0.00667,0.088871,-0.933786,-9.084064,2.030386,0.215819,-0.029297,0.171101
2.779048442840576,-0.363937,-9.242089,1.9825,0.077391,-0.049947,0.03827,-0.723086,-8.88773,3.069523,0.229668,0.195345,0.081218
2.8007543087005615,-0.474076,-9.424058,1.843629,0.02972,-0.030639,0.068897,-0.545906,-9.333074,2.432633,0.131263,-0.01638,0.09267
2.8250441551208496,-0.498019,-9.55814,1.857995,0.081919,-0.067391,0.114038,-1.292935,-9.007445,3.366419,0.18679,0.018641,0.142072
2.8489513397216797,-0.838013,-9.285188,2.308128,0.133052,-0.032903,0.141336,-1.0966,-8.940405,3.438249,0.093046,-0.050868,0.093203
2.8738696575164795,-0.138871,-9.649124,1.886727,-0.095184,-0.062065,0.0926,-0.584215,-9.136739,2.968961,-0.044908,-0.107062,0.059646
2.8969430923461914,-0.823647,-9.534197,1.647295,-0.038192,0.096263,0.137608,-0.804493,-9.323497,2.566715,-0.05889,-0.001999,0.079754
2.9199652671813965,-0.957729,-9.562929,1.613774,-0.008097,0.090537,0.088338,-1.173219,-9.242089,2.719952,-0.020806,0.094942,0.072163
2.9397754669189453,-0.890688,-9.189414,1.838841,0.047963,0.073626,0.036805,-1.331244,-8.724916,3.031214,-0.010819,-0.041947,-0.015056
2.967487335205078,-0.612947,-9.208569,1.953768,-0.012492,-0.022782,0.023356,-0.589004,-9.189414,2.44221,-0.137987,-0.233431,-0.024777
2.9893884658813477,-0.493231,-9.390537,1.891516,-0.054304,-0.078843,0.038004,-0.818859,-9.06491,2.854034,-0.078065,-0.106663,0.03661
3.011611223220825,-0.579426,-9.634759,1.795743,0.037177,-0.049148,0.073957,-0.751818,-9.467155,2.236298,-0.058624,-0.108793,0.065106
3.035647392272949,-0.526751,-9.323497,2.432633,0.187515,-0.062864,0.009108,-1.427017,-9.218146,2.839668,0.099837,-0.048871,0.042202
3.0596487522125244,-0.028732,-9.222935,2.997693,0.137047,-0.100015,-0.047485,0.07183,-9.040966,3.797397,0.050834,-0.133561,-0.041688
3.083972454071045,-0.100562,-9.443213,2.537983,0.01707,-0.011331,0.036672,-0.641679,-9.117584,3.251492,0.05403,0.013581,0.065372
3.1070494651794434,-0.78055,-9.246878,2.509251,0.05036,0.064837,0.135078,-0.8859,-9.38096,2.528406,0.081328,0.008121,0.11078
3.129737377166748,-0.646467,-9.66349,1.896304,0.059947,-0.009333,0.136542,-1.45096,-8.988291,3.265857,0.280402,0.072704,0.119702
3.148928642272949,-0.502808,-9.309131,2.006443,0.086846,-0.056472,0.01803,-1.058291,-9.141528,2.317705,0.211025,0.000265,0.028886
3.1778156757354736,-0.675199,-9.333074,2.039964,0.096566,-0.010665,0.074889,-0.895477,-8.930827,3.342476,0.209294,-0.06525,0.046464
3.201646327972412,-1.077446,-9.318707,2.174046,0.059015,0.045928,0.080216,-1.359976,-9.112796,3.103044,0.050967,0.000798,0.027954
3.2251052856445312,-0.679988,-9.45279,2.327283,0.044234,0.018764,0.024821,-1.221105,-8.949982,3.625006,0.021006,-0.048072,-0.012127
3.248220205307007,-0.804493,-9.237301,2.614601,0.022529,0.052719,0.005113,-0.981673,-8.926039,3.529233,-0.104031,-0.121843,-0.081237
3.2720389366149902,-0.608158,-9.227723,2.557138,-0.104372,0.073892,-0.000213,-0.622524,-8.92125,3.835706,-0.32561,-0.187091,-0.159402
3.295565605163574,-0.70872,-9.52462,2.078273,-0.226613,0.009176,-0.027111,-0.972095,-8.940405,3.466981,-0.504843,-0.096676,-0.227979
3.31884765625,-0.53154,-9.400115,2.413478,-0.067221,-0.093624,-0.068524,-0.589004,-9.280398,2.470942,-0.568494,-0.485237,-0.324787
3.34108567237854,-0.63689,-9.313919,2.40869,-0.040189,-0.095088,-0.033237,-0.550694,-9.165471,3.112621,-0.139585,-0.250342,-0.174582
3.365034341812134,-0.584215,-9.251667,2.423056,-0.052972,-0.05554,-0.013263,-0.502808,-9.289976,2.729529,-0.185792,-0.199741,-0.113062
3.389976739883423,-0.727874,-9.294765,2.327283,-0.122482,0.015035,0.008975,-0.627313,-9.313919,2.61939,-0.202969,-0.105464,-0.06832
3.412017822265625,-0.454922,-9.256455,2.111794,0.004686,0.064304,0.03614,0.033521,-9.337862,2.269819,-0.042511,-0.103866,-0.011727
3.43526291847229,-0.584215,-9.495888,2.025598,0.089243,0.022758,0.042664,-0.689565,-9.213358,2.51404,0.134858,0.143545,0.014239
3.459599494934082,-0.785338,-9.289976,2.518829,0.208687,-0.008934,0.043597,-0.713508,-9.175049,2.935441,0.283331,0.033821,0.036743
3.4840853214263916,-0.402246,-9.366594,2.561926,0.137447,-0.064595,-0.003542,-0.483653,-8.940405,3.821341,0.139119,-0.0779,-0.010529
3.5067148208618164,-0.325628,-9.198992,2.719952,0.024527,-0.008401,0.016166,-0.138871,-9.103219,3.265857,-0.065548,-0.045409,-0.001607
3.5298969745635986,-0.488442,-9.395327,2.293762,-0.127409,0.063505,0.060508,-0.794915,-9.256455,2.739106,-0.124005,0.089349,0.042336
3.548949718475342,-0.679988,-9.333074,2.346437,-0.020481,0.057114,0.049322,-0.809281,-9.309131,2.590658,-0.053297,0.021837,0.047928
3.5750272274017334,-0.464499,-9.342651,2.188412,0.029454,0.039936,0.014834,-0.474076,-9.285188,2.90192,0.144312,0.050866,0.038873
3.598910331726074,-0.56506,-9.251667,2.255453,0.061412,0.019962,0.036805,-0.756606,-9.084064,2.988116,0.150571,0.073503,0.039539
3.622936487197876,-0.498019,-9.390537,2.23151,0.03265,-0.001876,0.029881,-0.641679,-9.088853,3.0791,0.06921,-0.028231,0.018766
3.6467206478118896,-0.63689,-9.198992,2.40869,0.039574,-0.004273,0.039202,-0.617736,-9.031389,3.174873,0.015014,-0.046874,0.022362
3.6705076694488525,-0.407035,-9.323497,2.427844,-0.010095,-0.045686,0.040667,-0.957729,-9.170259,2.8684,-0.002563,-0.043678,0.007181
3.6920793056488037,-0.383092,-9.462367,2.475731,-0.033531,0.024223,-0.014594,-0.74224,-8.997869,3.591486,-0.016146,-0.051002,-0.066856
3.714998960494995,-0.684777,-9.366594,2.423056,-0.048578,0.072693,0.047059,-0.435767,-9.218146,3.098255,-0.131063,-0.150073,-0.04555
3.739915609359741,-0.493231,-9.246878,2.413478,-0.029536,0.01104,0.048124,-0.478865,-8.892518,3.524445,-0.091781,-0.115451,-0.008398
3.7642886638641357,-0.263376,-9.232512,2.427844,-0.071349,0.006912,0.047458,-0.296896,-9.088853,2.968961,-0.183395,-0.158195,0.01557
3.7879080772399902,-0.641679,-9.337862,2.145314,-0.148981,0.026487,0.07702,-0.900266,-9.112796,2.791781,-0.166883,-0.03955,0.027821
3.809685707092285,-0.526751,-9.409692,2.279396,-0.101975,0.005847,0.066766,-0.407035,-9.256455,2.830091,-0.160092,-0.194149,0.032349
3.8333053588867188,-0.430978,-9.438424,2.37038,-0.054171,0.050323,0.125756,-0.641679,-9.151105,3.213182,-0.049436,-0.005195,0.080153
3.8562405109405518,-0.794915,-9.242089,2.533195,-0.040189,0.070962,0.137741,-0.541117,-9.117584,2.988116,-0.015347,-0.037819,0.112245
3.879931926727295,-0.838013,-9.337862,2.288974,-0.089858,0.033012,0.070095,-0.881111,-9.151105,3.04558,-0.091115,-0.068046,0.025291
3.901050567626953,-0.612947,-9.448001,2.135737,-0.109166,0.010508,0.047858,-0.574638,-9.289976,2.54756,-0.108559,-0.091749,0.016769
3.9253158569335938,-0.493231,-9.385749,2.068696,-0.071615,0.025022,0.035208,-0.622524,-9.198992,2.710374,-0.034255,0.016377,-0.000142
3.9487388134002686,-0.627313,-9.34744,1.972923,-0.014755,0.052586,0.03574,-1.010405,-9.146317,2.609813,0.01315,0.030759,-0.002273
3.972926378250122,-0.732663,-9.424058,1.992077,0.048629,0.058046,0.01044,-0.593792,-9.237301,2.537983,0.042445,-0.009589,-0.026109
3.99652361869812,-0.703931,-9.495888,2.164469,0.048762,0.023424,0.00791,-0.852379,-9.318707,2.700797,0.061487,0.054861,-0.025709
4.019989967346191,-0.670411,-9.414481,2.288974,0.025592,0.03927,0.016965,-1.053502,-9.289976,2.810936,0.023802,0.069109,-0.019318
4.040055990219116,-0.723086,-9.548563,1.886727,-0.017152,0.095197,-0.0102,-0.63689,-9.361806,2.356014,0.006891,0.00892,-0.057401
4.066386699676514,-0.790127,-9.333074,1.91067,0.029321,0.096396,-0.015526,-0.847591,-9.117584,2.69122,0.065215,0.115981,-0.055138
4.089996814727783,-0.756606,-9.280398,1.747856,0.036112,0.120098,-0.009002,-0.612947,-9.270822,2.341649,0.059756,0.066446,-0.023712
4.111880779266357,-0.876322,-9.13195,2.126159,0.11947,0.109845,0.014834,-1.27378,-9.170259,1.925036,0.099437,0.112519,0.020098
4.135424375534058,-0.306473,-9.218146,2.590658,0.1477,0.043798,-0.064929,-0.957729,-8.897306,3.112621,0.135257,0.09148,-0.051143
4.159515142440796,0.205912,-9.299553,3.04558,0.136648,0.016899,-0.039362,0.134082,-9.045755,3.993732,0.08186,0.011051,-0.029438
4.17893123626709,-0.526751,-9.160683,3.237126,0.026657,0.138874,0.049456,-1.130121,-8.988291,4.089505,-0.049835,0.208394,0.016369
4.2065675258636475,-0.560272,-9.548563,2.921075,-0.131537,0.089605,0.060774,-0.416612,-9.424058,3.25628,-0.162489,-0.055263,0.020897
4.23005747795105,-0.770972,-9.457579,2.863611,-0.125278,0.093866,0.082613,-1.211528,-9.251667,3.653738,-0.113885,0.190151,0.036743
4.248968839645386,-0.579426,-9.371383,2.537983,-0.12155,0.203856,0.114171,-0.038309,-9.318707,3.375996,-0.133859,0.015578,0.033813
4.276031732559204,-1.201951,-9.117584,2.37038,-0.072813,0.249663,0.133746,-1.288146,-9.031389,2.90192,-0.039715,0.270846,0.099062
4.298964977264404,-0.53154,-9.371383,2.059118,-0.072147,0.038072,0.018163,-0.512385,-9.0266,3.036002,-0.034522,-0.056461,-0.021714
4.324293613433838,-0.373515,-9.136739,2.288974,-0.027006,0.084545,0.007377,-0.296896,-8.969136,2.897132,-0.048237,0.059788,-0.030503
4.348048210144043,-0.560272,-9.20378,1.881938,-0.094252,0.166172,0.033476,-0.900266,-9.007445,2.332071,-0.072472,0.195211,-0.009331
4.368983745574951,-0.996039,-9.189414,1.752645,-0.038724,0.227026,0.040534,-1.302512,-8.835054,2.360803,0.031792,0.197875,-0.033566
4.389917373657227,-0.498019,-9.194203,2.504462,0.222403,-0.139031,-0.165065,-1.69997,-8.88773,2.552349,0.137654,0.080161,-0.111731
4.417556047439575,0.464499,-8.935616,3.581908,0.311753,-0.213867,-0.200619,-0.225066,-8.772802,3.720779,0.245514,-0.288293,-0.194157
4.441510915756226,0.842802,-9.017023,3.969789,0.225332,-0.131974,-0.08184,0.91942,-8.619565,5.281878,0.179866,-0.092281,-0.030503
4.462259531021118,0.938575,-9.165471,4.151757,0.090974,0.010774,0.078618,0.627313,-8.873363,4.831745,0.032058,0.039281,0.104255
4.485473155975342,-0.148448,-9.175049,3.677681,-0.07308,0.168436,0.229222,-0.785338,-9.06491,4.046407,-0.054096,0.204,0.206655
4.510821580886841,-1.431806,-9.371383,2.782204,-0.175879,0.199062,0.273031,-2.403901,-9.189414,3.246703,-0.085522,0.250606,0.191608
4.534191608428955,-1.350399,-9.567718,1.757434,-0.060163,-0.039827,0.054116,-1.714336,-9.55814,2.164469,-0.116815,-0.074704,0.082683
4.557702302932739,-0.890688,-9.194203,1.987289,0.047297,-0.053675,0.014435,-1.41744,-9.27561,2.480519,0.011951,-0.055929,0.011176
4.581153154373169,-0.63689,-9.146317,2.150103,0.039041,-0.055273,0.005646,-0.60337,-8.949982,2.978539,0.039116,-0.099871,-0.015456
4.6050825119018555,-0.478865,-9.246878,2.317705,0.03225,-0.046485,0.000453,-0.56506,-9.017023,3.15093,0.040048,-0.07284,-0.014923
4.628002405166626,-0.339994,-9.256455,2.590658,0.044234,-0.071652,0.009508,-0.392669,-8.99308,3.375996,0.053364,-0.110524,0.001855
4.650897026062012,-0.469287,-9.222935,2.700797,0.050892,-0.053276,0.041466,-0.8859,-8.973926,3.443038,0.072938,-0.068712,0.044466
4.675281763076782,-0.747029,-9.385749,2.624179,0.009879,-0.008401,0.036006,-0.679988,-9.237301,3.57712,0.035387,-0.037286,0.017834
4.6987128257751465,-0.608158,-9.342651,2.533195,0.000158,-0.017722,0.040401,-0.99125,-9.079275,3.601063,0.021006,-0.008524,0.006915
4.71910285949707,-0.737452,-9.198992,2.504462,-0.014489,0.02662,0.056646,-0.924209,-9.002657,3.217971,-0.020407,0.014513,0.022228
4.7451441287994385,-0.694354,-9.289976,2.193201,-0.076675,0.034343,0.055315,-0.790127,-9.045755,2.849245,-0.060754,-0.024103,0.029286
4.768802881240845,-0.756606,-9.333074,2.183623,-0.062294,0.056847,0.073424,-0.761395,-9.141528,2.844457,-0.045308,0.030359,0.046863
4.7913734912872314,-0.847591,-9.222935,2.221932,-0.048179,0.077088,0.094064,-1.163641,-9.031389,2.959384,-0.005892,0.08642,0.072163
4.8152992725372314,-0.866745,-9.27561,2.566715,0.03478,0.1185,0.044928,-0.838013,-9.103219,3.117409,0.02034,0.073503,0.030751
4.839015960693359,-0.368726,-9.280398,2.873188,0.052757,0.052453,-0.009934,-0.416612,-8.945193,3.759088,0.047771,-0.021573,-0.050078
4.862587928771973,-0.373515,-9.189414,3.217971,0.051691,0.061641,0.002051,-0.407035,-8.92125,4.132603,0.02074,0.014913,-0.029704
4.886518478393555,-0.268164,-9.414481,2.968961,-0.021547,0.023691,0.022824,-0.38788,-9.093641,3.706413,-0.012417,0.001463,-0.002539
4.909201145172119,-0.756606,-9.184626,3.007271,-0.00903,0.079618,0.065568,-1.0966,-9.007445,3.71599,0.014215,0.105595,0.034745
4.9325337409973145,-0.766184,-9.304342,2.609813,-0.045116,0.060576,0.054516,-0.871534,-9.002657,3.356842,0.028862,0.000798,0.029419
4.955174684524536,-0.545906,-9.476733,2.375169,-0.091056,0.064038,0.046127,-0.996039,-8.940405,3.639372,0.005293,0.087485,0.027022
4.979125022888184,-0.790127,-9.060121,2.628968,0.031851,0.13155,0.03108,-1.182796,-8.724916,3.620217,0.265887,0.439294,0.031416
5.002077102661133,-0.430978,-9.337862,2.432633,-0.005434,0.103453,-0.004208,-0.2107,-9.002657,3.031214,0.141516,0.01438,0.049526
5.026326656341553,-0.60337,-9.088853,2.681643,0.092572,0.088007,0.020693,-1.187585,-8.935616,3.423883,0.267485,0.399479,0.089208
5.048992872238159,-0.723086,-9.328285,2.375169,0.035046,0.092135,0.044928,-0.790127,-9.012235,3.462192,0.191584,0.063649,0.07243
5.072607755661011,-0.895477,-9.213358,2.518829,0.08365,0.060709,0.039335,-1.27378,-8.806323,3.955423,0.125004,0.169112,0.027288
5.09578800201416,-0.430978,-9.227723,2.858823,0.151695,0.121031,0.013902,-0.545906,-9.09843,3.141353,0.13033,-0.035955,0.03914
5.119208335876465,-0.718297,-9.103219,2.782204,0.139178,0.194135,0.050787,-1.101389,-8.801534,3.78782,0.345118,0.243149,0.065905
5.1427929401397705,-0.81407,-9.390537,2.437422,0.087378,0.161778,0.046127,-1.316878,-8.791957,3.821341,0.235394,0.098404,0.03115
5.16526198387146,-1.072657,-9.117584,2.76305,0.096034,0.151125,0.033743,-1.407862,-8.705761,4.113448,0.111422,0.131028,-0.021182
5.190151691436768,-0.866745,-9.198992,2.820513,-0.003304,0.090803,-0.000746,-1.225894,-8.720127,4.175701,-0.044908,0.014913,-0.047947
5.212143898010254,-0.900266,-9.151105,2.968961,-0.074278,0.081349,-0.004341,-1.312089,-8.63872,4.228375,-0.170878,-0.017712,-0.06872
5.236482381820679,-0.454922,-9.390537,2.51404,-0.371225,0.087208,-0.025247,-0.804493,-8.648297,4.640199,-0.489663,-0.044344,-0.164995
5.260091304779053,-0.766184,-9.462367,2.494885,-0.243658,0.154054,0.020693,-1.048714,-9.433636,2.537983,-0.394187,0.081226,-0.132637
5.284716844558716,-1.053502,-9.256455,2.700797,-0.0318,0.158049,-0.011265,-1.364764,-8.930827,3.85965,-0.011751,0.197475,-0.086563
5.306964635848999,-0.775761,-9.289976,2.667277,-0.031534,0.077754,-0.024848,-0.665622,-9.050544,3.299378,-0.032791,-0.04208,-0.067388
5.329147815704346,-0.100562,-9.27561,2.834879,-0.009429,0.012905,-0.01313,-0.488442,-8.878152,3.739934,0.029262,0.027296,-0.034764
5.348950147628784,-0.632101,-9.323497,2.652911,-0.113693,0.146464,0.016032,-1.019982,-8.811111,4.151757,0.006225,0.200138,-0.0325
5.377509117126465,-0.909843,-9.189414,2.480519,-0.12368,0.138608,0.047858,-1.230682,-9.031389,2.949807,-0.110822,0.116114,0.00292
5.401093482971191,-0.670411,-9.395327,2.322494,-0.082534,0.086276,0.039202,-0.842802,-9.34744,2.537983,0.022471,0.068976,0.000523
5.4238035678863525,-1.149275,-9.151105,2.356014,0.103358,0.125158,0.027617,-1.752645,-8.739282,3.644161,0.436732,0.365523,0.049659
5.4478065967559814,-1.173219,-9.323497,2.351226,0.068869,0.071894,-0.024315,-1.383919,-8.858997,3.586697,0.297313,0.084822,-0.005069
5.470806360244751,-0.411824,-9.333074,2.652911,0.003887,-0.074448,-0.075582,-0.301685,-9.036178,3.414306,0.154566,-0.111057,-0.024511
5.493526458740234,-0.986461,-9.246878,2.121371,0.153692,0.145931,0.070229,-0.589004,-8.964348,3.146141,0.274942,-0.032492,0.070299
5.518078088760376,-1.0966,-9.127162,2.58587,0.190577,0.123561,-0.0102,-1.575465,-8.413653,3.941057,0.495722,0.145809,0.067237
5.5400683879852295,-0.421401,-9.357017,2.729529,0.177261,0.06244,-0.146157,-0.402246,-8.983502,3.883593,0.242851,-0.08842,-0.179909
5.565279006958008,-0.181969,-9.141528,3.122198,0.212682,0.088939,-0.109537,-0.38788,-8.552525,4.822168,0.27947,0.074169,-0.097749
5.5852673053741455,-0.45971,-9.256455,3.15093,0.101626,0.180154,0.029615,-1.048714,-8.480695,5.071177,0.166949,0.222243,-0.019451
5.609487295150757,-1.163641,-9.189414,2.954596,-0.085597,0.222499,0.044529,-1.374342,-8.820688,3.89317,-0.121076,0.166449,-0.031036
5.634550094604492,-0.296896,-9.371383,2.595447,-0.04738,0.141005,-0.018323,-0.713508,-8.8159,3.869227,-0.13053,0.038615,-0.064725
5.657732248306274,-0.81407,-9.155894,2.830091,0.018401,0.195201,0.030547,-1.110966,-8.777591,3.639372,0.359898,0.285494,-0.011461
5.681915521621704,-0.675199,-9.333074,2.51404,0.074195,0.14167,0.020027,-1.02477,-8.53337,4.185278,0.507972,0.025432,0.024758
5.705117225646973,-0.799704,-9.069698,2.935441,0.130789,0.119166,0.063171,-1.034348,-8.787168,3.198817,0.551915,0.111187,0.070699
5.728777170181274,-0.45971,-8.830266,3.064734,0.186316,0.087474,0.024155,-1.02477,-8.064082,5.032868,0.95073,0.100668,0.088276
5.751463890075684,-0.948152,-8.92125,2.887554,-0.020881,0.21877,0.037205,-1.580254,-8.485483,4.237953,0.811444,0.234893,0.032615
5.77509880065918,-1.06308,-9.256455,2.877977,0.117206,0.127822,0.063837,-0.53154,-8.748858,3.888382,0.983487,-0.252473,0.023294
5.797702789306641,-0.569849,-9.342651,2.72474,0.102026,0.06031,0.105117,-0.790127,-7.781552,5.329764,2.186322,-0.167517,0.277896
5.81918740272522,-0.99125,-9.0266,2.782204,0.062078,0.063505,0.138273,-2.001655,-7.977887,5.818207,2.02107,0.291886,0.385489
5.8456268310546875,-0.555483,-9.486311,2.628968,0.11401,-0.107738,0.077686,-0.718297,-7.867748,5.411171,1.901759,-0.369387,0.272303
5.868865489959717,-0.699143,-8.973926,3.25628,0.3782,-0.131707,0.183148,-1.422228,-6.93875,6.651431,1.972866,-0.026101,0.349403
5.891771078109741,-0.833225,-9.361806,3.265857,0.342114,-0.097751,0.201258,-1.436594,-6.804668,6.933961,2.120807,-0.109592,0.373505
5.916461944580078,-0.646467,-9.189414,3.088678,0.37314,-0.117193,0.317241,-0.723086,-6.771147,7.192548,2.365023,-0.097608,0.433959
5.939592361450195,-0.8859,-9.074487,3.237126,0.357693,-0.054341,0.328825,-1.62814,-6.01933,7.436769,2.068209,0.043941,0.479766
5.962071895599365,-1.048714,-8.99308,3.443038,0.348905,-0.102678,0.30459,-1.790954,-5.229203,7.958732,1.881252,0.044874,0.468315
5.985412836074829,-0.737452,-9.09843,3.246703,0.268742,-0.131441,0.280488,-1.06308,-5.727222,7.829439,1.814273,0.002795,0.461657
6.009546995162964,-0.933786,-9.246878,3.29459,0.375137,-0.130775,0.346269,-1.690392,-5.38244,8.006618,1.848362,0.16019,0.568318
6.031921625137329,-1.278569,-8.260417,4.012887,0.443182,-0.120655,0.432025,-2.063907,-4.486963,8.241262,1.720262,0.211191,0.556067
6.0561134815216064,-0.866745,-9.021811,3.486135,0.138379,-0.204413,0.324032,-2.777416,-4.113448,8.945193,1.612669,0.182162,0.558464
6.079294443130493,-0.660833,-9.457579,3.184451,0.283923,-0.133572,0.371304,-1.752645,-4.31936,8.519004,1.68604,0.231298,0.553271
6.101591110229492,-1.321667,-8.892518,3.217971,0.518417,-0.049148,0.460654,-1.953768,-4.381612,8.198164,1.885913,0.325841,0.621449
6.125286102294922,-2.016021,-7.695356,4.611467,0.731607,-0.093757,0.419241,-3.308955,-1.776588,9.749686,1.658742,0.251538,0.59455
6.149019479751587,-1.091812,-8.614777,4.118237,0.451571,-0.129044,0.26664,-2.590658,-2.820513,9.45279,1.273643,0.104529,0.466317
6.173941373825073,-1.154064,-8.504638,4.486963,0.447709,-0.072451,0.275428,-2.782204,-1.972923,9.831093,1.319317,0.172308,0.484294
6.19671630859375,-1.652083,-8.188587,4.228375,0.417882,0.048725,0.336416,-2.423056,-3.170084,8.978714,1.453675,0.265254,0.510127
6.220783233642578,-1.719124,-7.848593,4.769493,0.272471,0.047127,0.215639,-2.935441,-1.106178,9.998695,0.795332,0.145276,0.242076
6.240628242492676,-1.489269,-8.375344,4.712029,0.025059,0.028751,0.072359,-2.466153,-1.781377,9.409692,0.116615,-0.005727,0.056584
6.267939329147339,-1.139698,-9.548563,4.118237,-0.029004,-0.02984,0.058644,-0.996039,-3.466981,7.561274,0.42528,-0.042613,0.17949
6.291407108306885,-1.59462,-8.269994,4.204432,0.278197,-0.109203,0.236812,-2.954596,-1.321667,9.285188,1.755017,0.282564,0.699481
6.313922882080078,-1.987289,-8.155066,4.534849,0.25769,0.017965,0.211778,-3.002482,-1.163641,9.969964,1.804819,0.295215,0.655138
6.338133335113525,-1.455749,-8.365767,4.338514,0.157287,-0.064328,0.197796,-2.772627,-0.948152,9.802361,0.886546,0.12437,0.343011
6.359635591506958,-1.513213,-8.088025,4.898786,0.197901,-0.019986,0.206984,-2.844457,-0.205912,9.261244,0.588934,0.136621,0.230224
6.384626626968384,-1.436594,-8.38971,4.649776,0.153692,0.026221,0.191671,-2.806147,-0.411824,9.711377,0.768034,0.143545,0.213313
6.4078688621521,-1.676027,-8.423231,4.453442,0.258622,0.106516,0.185279,-3.040791,-0.239432,9.562929,0.884416,0.156595,0.22623
6.431102275848389,-1.695181,-8.360978,4.721606,0.269674,0.016234,0.210979,-2.753472,0.201123,9.582084,0.849128,0.140083,0.289348
6.4538254737854,-1.905882,-7.915634,5.171739,0.082718,-0.070986,0.238143,-2.834879,-0.062252,9.285188,0.692,0.15806,0.315713
6.475803375244141,-1.685604,-7.920423,5.109487,-0.003836,-0.031438,0.197397,-3.280223,0.775761,10.142355,0.56856,0.16778,0.211049
6.49904203414917,-1.881938,-8.035351,4.793436,-0.072414,0.105983,0.078085,-3.510078,0.761395,10.065737,-0.02014,0.082292,-0.049279
6.523561477661133,-1.714336,-9.055332,4.21401,-0.146184,0.176958,-0.007537,-2.360803,-1.015193,8.667452,-0.375145,0.013581,-0.185368
6.548040151596069,-1.929825,-8.246051,4.774282,0.109882,0.097994,0.050787,-2.964173,0.378303,9.424058,0.295582,0.034088,0.037142
6.570860147476196,-1.757434,-7.963521,5.02808,0.123731,0.061375,0.07449,-3.189239,0.804493,9.754475,0.245381,0.038881,0.042069
6.593571424484253,-1.7718,-7.805495,5.143007,-0.049244,0.120098,0.025354,-3.203605,0.938575,9.864614,-0.185392,0.027829,-0.10454
6.617546319961548,-2.241087,-8.346612,4.429499,-0.182271,0.220634,-0.063464,-3.352053,-0.191546,9.069698,-0.58687,-0.027432,-0.266463
6.641326427459717,-1.795743,-8.447174,4.376824,-0.043119,0.148728,-0.097953,-2.983327,-0.215489,9.409692,-0.341722,-0.082427,-0.190295
6.662501811981201,-1.896304,-7.934789,5.013714,-0.012092,0.13155,-0.099284,-2.964173,0.430978,9.668279,-0.358367,-0.107994,-0.180708
6.685130596160889,-1.460537,-8.375344,4.879632,-0.069484,0.174694,-0.129778,-2.729529,-0.07183,9.649124,-0.542394,-0.089352,-0.268061
6.70977783203125,-1.953768,-8.164644,4.879632,-0.082401,0.235681,-0.089164,-2.949807,-0.287319,9.342651,-0.640533,-0.043944,-0.27858
6.733673810958862,-1.642506,-8.1407,4.88442,-0.075077,0.191472,-0.077446,-2.935441,-0.134082,9.529408,-0.572089,-0.045409,-0.253013
6.757757663726807,-1.656872,-8.514215,4.419921,-0.061095,0.104918,-0.172123,-2.643333,-1.201951,9.007445,-0.559173,-0.218118,-0.170721
6.781532526016235,-1.537156,-8.293938,4.755127,0.041971,0.106782,-0.11007,-2.432633,-0.608158,9.385749,-0.288059,-0.137556,-0.127044
6.798815488815308,-1.541945,-8.255629,4.755127,0.044368,0.098127,-0.02325,-2.734318,-0.311262,9.821516,-0.168481,-0.01385,-0.101744
6.828215599060059,-1.604197,-8.00183,4.980193,-0.046448,0.120365,0.005779,-2.676854,-0.2107,9.917289,-0.404174,0.017975,-0.121851
6.851278066635132,-1.891516,-7.566063,4.937096,-0.219556,0.158848,0.028949,-3.950634,0.435767,10.851075,-1.051332,0.076299,-0.257408
6.874014854431152,-1.757434,-8.954771,4.017675,-0.487873,0.349001,-0.164799,-2.61939,-1.992077,8.949982,-1.895034,-0.113054,-0.598963
6.896739959716797,-1.589831,-8.724916,3.806975,-0.156571,0.282421,-0.395166,-2.643333,-2.427844,9.409692,-1.793433,-0.342755,-0.597099
6.921308994293213,-1.331244,-7.920423,4.759915,-0.051508,0.190274,-0.405552,-3.103044,-1.16843,10.894173,-2.236856,-0.346883,-0.721071
6.9453346729278564,-1.374342,-8.423231,4.654565,-0.448058,0.275896,-0.597037,-2.609813,-2.638545,9.52462,-3.615596,-0.466994,-1.186199
6.969200372695923,-1.130121,-8.542947,3.888382,-0.61837,0.272434,-0.6764,-2.537983,-3.625006,8.997869,-4.402039,-0.389095,-1.553854
6.992644548416138,-1.321667,-9.160683,3.830918,-0.832758,0.344873,-0.693311,-1.561099,-5.52131,6.493406,-4.402039,-0.157663,-1.874237
7.015383958816528,-1.431806,-8.317881,3.806975,-0.140459,0.066568,-0.232444,-0.651256,-5.176528,7.64747,-3.034086,-0.583376,-1.435342
7.039509534835815,-1.144487,-8.677029,4.281051,-0.373888,-0.050213,-0.268131,-1.570676,-5.890036,9.222935,-2.140449,-0.200407,-0.813218
7.062885761260986,-0.521963,-8.677029,3.773454,-0.514106,-0.001743,-0.155078,-1.163641,-6.220453,7.882113,-2.83874,0.151402,-1.076342
7.086305618286133,-1.000827,-9.390537,3.246703,-0.921975,0.295071,-0.002743,-1.182796,-6.76157,7.336208,-3.941439,0.460333,-1.36024
7.109161853790283,-1.676027,-9.730532,9.117584,-4.389997,0.08814,0.00791,-1.182796,-6.76157,7.336208,-3.941439,0.460333,-1.36024
7.129686117172241,-1.537156,-8.619565,3.332899,-1.926268,0.008643,-0.186105,-2.499674,-7.379306,4.721606,-3.213053,-0.178835,-1.293659
7.155302286148071,-0.445344,-9.289976,2.322494,-0.909325,-0.716946,-0.526994,-0.833225,-8.686606,2.51404,-3.005589,-1.921368,-1.111496
7.179638147354126,-0.450133,-8.811111,3.39994,-0.353248,-0.148086,-0.318599,0.45971,-8.207742,5.492579,-0.530943,0.196809,-0.489772
7.20181941986084,-0.684777,-9.017023,3.160507,-0.465502,0.074691,-0.120856,-0.70872,-8.011407,5.674547,-0.680614,0.263522,-0.340633
7.225537300109863,-0.517174,-9.835882,1.819686,-0.806126,0.022625,-0.172655,0.349571,-9.175049,3.428672,-1.066779,-0.464064,-0.271123
7.246294021606445,-0.660833,-9.222935,2.394324,-0.544866,0.071894,-0.141363,-0.253798,-8.763225,4.271473,-0.800059,-0.110791,-0.261802
7.269024848937988,-0.646467,-9.955598,1.206739,-0.526357,0.056981,-0.12818,0.383092,-9.730532,2.15968,-0.695129,-0.409469,-0.188298
7.293485403060913,-0.699143,-9.088853,2.317705,-0.079471,-0.003874,-0.076247,-0.502808,-8.485483,4.577947,-0.151037,0.145409,-0.20188
7.317553997039795,-0.550694,-9.400115,1.987289,-0.202112,0.146065,-0.204214,0.067041,-8.849421,4.055984,-0.408036,0.210125,-0.370993
7.34073543548584,-0.493231,-9.764052,1.551522,-0.29346,-0.031704,-0.164133,0.42619,-9.390537,2.705586,-0.418822,-0.490297,-0.142624
7.365445137023926,-0.785338,-9.237301,2.212355,-0.060696,0.137409,-0.12778,-0.569849,-8.6052,4.089505,-0.139985,0.297878,-0.25035
7.388866901397705,-0.478865,-9.323497,2.083062,-0.15697,-0.042224,-0.183574,0.335205,-8.763225,3.955423,-0.290322,-0.266588,-0.215729
7.412671327590942,-0.660833,-9.749686,1.589831,-0.218357,0.018231,-0.24363,0.124505,-9.41927,2.930652,-0.355171,-0.073373,-0.339701
7.435395002365112,-0.569849,-8.978714,2.403901,0.198034,0.165373,-0.083305,1.695181,-9.505466,2.676854,-0.073937,-0.479644,-0.177911
7.45890474319458,-0.373515,-9.170259,2.130948,-0.04485,0.051787,-0.14589,0.162814,-8.806323,3.53881,-0.145178,-0.08043,-0.21999
7.479634523391724,0.632101,-9.409692,1.972923,-0.081069,-0.04755,-0.19436,1.790954,-8.897306,3.562754,-0.153567,-0.29535,-0.181107
7.50531530380249,-0.201123,-9.208569,1.762222,-0.049643,0.136477,-0.06879,0.081407,-8.686606,3.50529,-0.090316,0.098138,-0.150613
7.529667854309082,-0.421401,-10.013062,0.838013,-0.030335,0.117702,-0.224055,1.010405,-9.620393,2.356014,-0.043177,-0.227705,-0.261136
7.552910566329956,-0.143659,-9.002657,2.375169,0.369944,-0.079908,-0.214068,0.560272,-8.442386,4.472597,0.374413,-0.070842,-0.21746
7.57625937461853,0.138871,-9.586872,1.810109,0.550376,-0.309609,-0.164799,1.359976,-9.395327,2.882766,0.335796,-0.353275,-0.173783
7.599209308624268,-0.062252,-9.179837,2.676854,0.617089,-0.199219,-0.108339,0.502808,-8.399287,4.755127,0.705316,-0.083892,-0.097216
7.620014667510986,0.100562,-8.954771,3.22276,0.324936,-0.199885,-0.087832,0.952941,-8.092814,5.703279,0.380405,-0.178569,-0.062728
7.6463940143585205,-0.124505,-9.859825,1.115755,-0.046181,-0.225585,-0.052145,0.521963,-9.87898,1.197162,0.038317,-0.458738,0.012508
7.669568777084351,0.397458,-9.352228,2.681643,0.442783,-0.237436,-0.14842,0.718297,-8.490272,4.984982,0.610506,-0.057393,-0.146485
7.693536758422852,0.330417,-9.950809,2.083062,0.4292,-0.272857,-0.155877,1.968134,-9.299553,3.514867,0.547255,-0.557543,-0.051276
7.715102195739746,0.220278,-8.858997,3.500501,0.731873,-0.272591,-0.027245,0.833225,-7.944366,5.775109,0.854189,-0.237958,0.021696
7.740920543670654,0.928998,-8.844632,3.826129,0.305628,-0.272591,0.01763,1.810109,-7.628315,6.632277,0.438862,-0.194681,0.064706
7.759477615356445,-0.134082,-9.768841,1.608986,-0.257773,-0.045153,0.129485,-0.10535,-9.515042,1.55631,-0.175006,-0.189355,0.155255
7.785478591918945,0.924209,-9.361806,2.767838,0.343978,-0.226384,0.016565,1.834052,-8.490272,4.970616,0.513698,-0.194016,0.060712
7.809759140014648,0.292107,-9.189414,2.791781,0.450772,-0.010665,0.124824,0.502808,-8.437596,4.304994,0.600785,0.063649,0.120501
7.835238218307495,-0.081407,-9.007445,3.375996,0.379398,0.050722,0.091534,0.306473,-8.016195,5.846939,0.441526,0.245679,0.007847
7.8584959506988525,-0.057464,-9.0266,2.61939,0.074462,-0.186969,0.261846,0.162814,-8.490272,3.658527,0.249376,-0.152203,0.303862
7.882132053375244,-0.081407,-8.973926,3.246703,0.331328,-0.193893,0.206851,0.153237,-7.848593,5.612295,0.51756,-0.08043,0.232888
7.905195236206055,-0.100562,-9.34744,2.40869,0.142906,-0.037164,0.039335,0.033521,-9.323497,2.576292,0.169746,-0.005195,0.028354
7.9292991161346436,0.521963,-9.261244,2.480519,0.506167,-0.414273,-0.05108,2.039964,-9.112796,2.628968,0.870967,-0.596026,0.220504
7.952720403671265,0.316051,-8.768013,4.094294,1.385157,-0.094822,0.087939,0.747029,-6.871709,6.957905,2.065413,1.407234,-0.002007
7.976529121398926,0.541117,-8.897306,4.333726,0.884341,-0.116394,0.101654,0.660833,-7.18776,7.403249,1.169911,0.297878,0.464187
7.999105215072632,-0.052675,-8.777591,4.295417,0.541987,0.232885,0.136809,-0.095773,-7.958732,5.861304,0.716102,0.725055,0.3
8.023214340209961,0.114928,-8.729704,3.471769,0.469148,0.073359,0.097926,0.723086,-8.365767,3.050368,0.852191,0.12983,0.431429
8.047149658203125,0.023943,-7.872536,4.803013,1.235085,0.168302,0.14107,-0.430978,-6.440731,7.728877,1.41133,0.888443,0.544882
8.070199966430664,0.057464,-8.954771,4.127814,1.08568,0.135678,0.143067,-0.42619,-6.948328,6.86692,1.386563,0.525981,0.568451
8.093876838684082,0.143659,-9.084064,4.180489,1.360921,0.123028,0.139738,0.766184,-7.795918,3.217971,1.828654,-0.084558,0.71253
8.115248918533325,0.110139,-6.344958,6.502983,2.577472,0.189874,0.345204,-2.073484,-3.907536,10.223763,3.509534,0.860346,1.116938
8.140936136245728,0.339994,-7.197337,6.311437,1.233088,0.01903,0.283951,-1.134909,-4.309783,10.118412,2.495919,-0.123574,0.879247
8.159488201141357,-0.047886,-8.049716,5.937923,0.630139,0.084412,0.21524,-1.144487,-5.406383,8.873363,1.677917,0.0759,0.634232
8.186482191085815,-0.100562,-8.198164,5.918768,0.654241,0.097461,0.160378,-0.301685,-5.315399,7.82465,1.75475,-0.1807,0.547012
8.209642887115479,-0.474076,-7.436769,6.277917,0.98501,0.265909,0.26118,-1.446172,-4.170912,8.835054,2.21322,0.237823,0.752611
8.235299825668335,-0.445344,-6.708895,6.933961,0.677943,0.236214,0.2207,-1.680815,-3.146141,9.821516,1.795497,0.207462,0.652342
8.258599519729614,-0.162814,-7.431981,6.234819,0.254228,0.171898,0.113639,-1.340821,-3.706413,9.127162,1.284562,0.00639,0.416915
8.281604528427124,-0.263376,-7.048889,6.469463,0.249967,0.227825,0.090069,-1.407862,-3.126987,9.495888,1.157128,0.043675,0.331692
8.301769733428955,-0.641679,-6.842977,6.641854,0.101227,0.191073,0.055714,-1.886727,-2.662488,9.974752,0.740337,0.060587,0.212248
8.325389385223389,0.124505,-7.518177,6.924384,-0.073745,0.045928,0.047591,-0.541117,-2.968961,9.711377,0.796397,-0.146611,0.281491
8.349159955978394,-0.17718,-7.331419,6.143835,-0.023544,0.359787,0.120563,-1.053502,-3.208394,9.007445,1.071772,0.099336,0.403998
8.375659465789795,-0.521963,-7.053678,6.344958,0.018268,0.327295,0.144266,-1.723913,-2.427844,10.01785,0.886413,0.174572,0.287883
8.398950338363647,-0.943364,-7.522965,5.727222,-0.366032,0.119433,0.043064,-1.790954,-3.25628,8.643509,-0.224142,0.092678,-0.009464
8.42271375656128,-0.454922,-7.269167,6.431153,-0.121949,-0.105208,-0.000746,-1.714336,-2.571504,9.764052,-0.527081,-0.013184,-0.133968
8.446238279342651,-0.593792,-7.374517,6.541292,-0.134333,-0.05048,-0.07172,-1.364764,-2.921075,9.184626,-0.756116,-0.015581,-0.265797
8.469309091567993,-0.239432,-7.508599,6.483829,-0.120085,0.003716,-0.065861,-1.082234,-3.04558,9.361806,-0.423882,-0.011586,-0.211867
8.491037845611572,-0.727874,-7.312264,6.172566,-0.115158,0.103587,-0.073318,-1.695181,-3.198817,8.557313,-0.263024,0.045806,-0.180175
8.515342712402344,-0.689565,-7.254801,6.297071,0.053156,0.010241,-0.0869,-1.091812,-2.54756,9.778418,-0.038783,-0.097075,-0.07085
8.54019832611084,-0.047886,-7.657047,5.990598,0.086313,-0.069921,-0.014461,-0.809281,-3.404728,8.882941,0.05656,-0.103733,-0.051675
8.56325888633728,0.277742,-7.101564,6.809457,0.208953,0.015834,0.002983,-0.574638,-2.466153,9.845459,0.265222,-0.064983,0.001855
8.585489988327026,-0.407035,-6.943539,6.857343,-0.069884,0.168702,0.077153,-1.316878,-2.217144,10.003485,0.197044,0.100668,0.046996
8.610503673553467,-0.828436,-7.728877,5.760743,-0.27242,0.199329,0.117634,-1.685604,-3.596274,8.42802,0.126735,0.137154,0.103589
8.631101131439209,-0.627313,-7.47029,6.603545,-0.103041,0.145133,0.095795,-1.37913,-2.834879,9.108007,0.383335,0.025033,0.16977
8.657675743103027,-0.646467,-7.312264,6.273128,0.064208,0.135678,0.14067,-1.728702,-2.581081,9.093641,0.741402,0.057258,0.293609
8.680198431015015,-0.622524,-7.29311,6.105525,0.108151,0.120631,0.122427,-1.676027,-2.499674,9.328285,0.859781,0.036618,0.313716
8.702353477478027,-0.378303,-7.154239,6.555658,0.184985,0.140472,0.179819,-1.154064,-1.925036,9.73532,1.034621,0.035286,0.38469
8.726387023925781,-0.330417,-7.168605,6.732838,0.079788,0.180819,0.245068,-0.962518,-1.738279,9.582084,1.101733,0.117046,0.463654
8.750130414962769,-0.53154,-7.278744,6.30186,-0.060429,0.201592,0.319105,-1.407862,-1.781377,9.261244,1.057391,0.191083,0.512524
8.774448871612549,-0.952941,-7.546908,5.966655,0.076726,0.253125,0.300995,-1.886727,-2.006443,9.237301,1.03502,0.224373,0.477103
8.796702146530151,-0.794915,-7.245224,6.646643,0.074994,0.182684,0.237345,-1.45096,-1.034348,9.80715,0.761376,0.112652,0.305726
8.820197105407715,-0.713508,-7.130296,6.967482,-0.038058,0.215308,0.24853,-1.178007,-0.474076,9.898134,0.706647,0.196676,0.312517
8.84108853340149,-1.245048,-6.914807,6.459885,-0.360705,0.251394,0.286614,-2.298551,-0.253798,9.649124,0.560704,0.359664,0.348471
8.865347146987915,-1.048714,-7.499022,6.043273,-0.453917,0.233151,0.209381,-2.05433,-1.163641,9.649124,0.394653,0.352074,0.276564
8.890785455703735,-1.010405,-7.527754,6.043273,-0.309705,0.241274,0.204454,-1.810109,-1.034348,9.467155,0.395585,0.29881,0.174297
8.914218664169312,-1.350399,-6.977059,6.675375,-0.296389,0.256188,0.255055,-2.092639,0.162814,10.118412,0.521422,0.349677,0.207321
8.93725323677063,-1.302512,-7.499022,5.621872,-0.438338,0.146198,0.262379,-2.566715,-0.823647,9.553351,0.477612,0.381902,0.29787
8.955273628234863,-1.16843,-7.273955,6.043273,-0.233005,0.11131,0.147994,-2.590658,-0.014366,10.295592,0.188921,0.192016,0.121965
8.981310367584229,-1.201951,-7.431981,6.05285,-0.34952,0.146997,0.062638,-2.111794,-0.186757,9.902923,-0.432937,0.152067,-0.191893
9.007489204406738,-1.182796,-7.264378,6.723261,-0.592004,0.183749,0.100855,-1.901093,0.45971,10.209396,-0.748792,0.277904,-0.302815
9.030701160430908,-1.814897,-8.035351,5.056812,-0.796139,0.19094,0.153187,-3.208394,-1.623351,9.060121,-0.808981,0.417988,-0.272588
9.05454421043396,-1.283358,-7.853382,5.550042,-0.475889,0.111044,0.020826,-2.537983,-1.06308,9.649124,-0.799926,0.174305,-0.334774
9.077728271484375,-1.709547,-7.11593,5.803841,-0.306909,0.225828,-0.133107,-3.299378,-0.263376,10.491926,-1.395018,0.176702,-0.721204
9.101944923400879,-1.216316,-8.6052,5.372862,-0.410907,0.07762,-0.204081,-1.053502,-2.949807,7.317053,-1.734044,-0.07244,-0.796972
9.124509334564209,-1.125332,-8.116757,5.324976,-0.105304,0.029816,-0.052412,-2.078273,-2.183623,8.882941,-0.358101,0.04514,-0.220256
9.146774768829346,-1.010405,-8.068871,5.368074,0.05795,0.113574,-0.044422,-2.063907,-2.030386,9.395327,0.078664,0.025832,-0.157804
9.172142267227173,-1.575465,-7.149451,5.985809,0.113345,0.229023,-0.021386,-2.834879,-0.818859,9.936443,0.177869,0.128498,-0.196021
9.195640087127686,-1.585042,-7.781552,5.597929,-0.124213,0.159114,-0.017524,-2.197989,-1.810109,9.41927,-0.094843,0.019706,-0.097216
9.219141721725464,-1.072657,-7.738454,5.612295,-0.146318,0.069231,0.018296,-2.107005,-1.551522,9.644336,-0.048903,0.048469,-0.094819
9.239047527313232,-1.498847,-7.939578,5.401594,-0.108234,0.125957,0.01297,-2.418267,-1.872361,9.352228,0.006225,0.07803,-0.108668
9.26524305343628,-1.69997,-7.819861,5.435115,0.001224,0.066968,0.027484,-2.662488,-1.747856,9.357017,0.149905,0.025832,-0.041555
9.289048433303833,-1.27378,-7.633104,5.822995,-0.018084,-0.06313,-0.016192,-2.470942,-1.254626,9.730532,0.058957,-0.098806,0.017834
9.313193798065186,-1.010405,-8.169433,5.214837,-0.107035,-0.024913,-0.045754,-2.255453,-2.063907,9.481522,-0.157295,-0.095078,-0.036895
9.335709571838379,-1.283358,-8.030561,5.305821,0.039308,0.123827,-0.043224,-2.533195,-1.824475,9.337862,-0.06435,0.014913,-0.057002
9.359343767166138,-1.460537,-7.882113,5.439903,0.061545,0.039403,0.011106,-2.557138,-1.905882,9.34744,-0.003762,-0.023038,0.01557
9.382356405258179,-1.192373,-7.738454,5.631449,0.056352,-0.043422,0.017364,-2.308128,-1.623351,9.500676,-0.052898,-0.086289,0.058581
9.405303239822388,-1.374342,-7.963521,5.344131,0.069269,-0.030905,0.040268,-2.552349,-2.202778,9.031389,-0.084989,-0.044477,0.059513
9.429823637008667,-1.134909,-7.795918,5.631449,0.184851,0.02955,-0.007537,-2.40869,-1.709547,9.534197,0.048836,-0.056328,0.018234
9.453659296035767,-1.115755,-7.637893,5.894825,0.159418,0.080949,-0.039096,-2.130948,-1.441383,9.792784,-0.046639,-0.03955,-0.079506
9.477943897247314,-1.422228,-7.590006,5.918768,0.022529,0.054184,0.020959,-2.26503,-1.996866,9.34744,-0.232664,0.033022,-0.01479
9.498993635177612,-1.518001,-7.992252,5.248358,0.077924,0.022226,0.067965,-2.432633,-2.466153,8.849421,0.025134,0.009986,0.059913
9.524609565734863,-1.130121,-7.910845,5.463847,0.298836,-0.037696,0.084477,-2.15968,-2.150103,9.294765,0.300243,-0.063652,0.14114
9.54684591293335,-1.45096,-7.57564,5.799052,0.305761,0.009842,0.0669,-2.552349,-1.460537,9.66349,0.313426,-0.029563,0.117837
9.571238279342651,-1.278569,-7.666625,5.899613,0.149964,-0.01426,0.044662,-2.312917,-1.508424,9.720954,0.149239,-0.044743,0.064307
9.590956211090088,-1.398285,-7.446347,6.009752,0.068603,-0.030639,0.053051,-2.049541,-1.541945,9.677856,-0.048504,-0.096542,0.046464
9.61553692817688,-0.967307,-7.666625,5.885248,0.030119,-0.058602,0.011771,-2.193201,-1.470115,9.620393,-0.150637,-0.009056,0.025291
9.640961647033691,-1.350399,-7.594795,5.966655,-0.035928,0.037672,0.073424,-2.533195,-1.546733,9.711377,-0.252505,0.056858,0.000656
9.66569709777832,-1.55631,-7.532542,5.899613,-0.110764,0.020495,0.057578,-2.753472,-1.551522,9.768841,-0.443456,0.057923,-0.050876
9.688966989517212,-1.340821,-7.312264,5.870882,-0.244856,0.00598,-0.022318,-3.174873,-1.206739,10.467983,-0.883684,0.0502,-0.215063
9.709633111953735,-1.364764,-7.360151,5.301033,-0.4928,0.019829,-0.273058,-3.519656,-1.800531,10.817554,-2.109822,0.025299,-0.743975
9.735750913619995,-1.59462,-9.060121,5.109487,-0.952868,-0.197622,-0.427524,-1.901093,-2.978539,8.988291,-2.457769,-0.148075,-1.130805
9.757988691329956,-0.450133,-7.944366,5.813418,-0.491069,-0.184971,-0.180778,-0.981673,-3.85965,8.839843,-1.777587,-0.147143,-0.77287
9.78021788597107,-0.665622,-7.671413,5.597929,-0.476954,-0.015459,-0.060668,-1.513213,-3.50529,9.021811,-1.217516,0.054861,-0.479119
9.805402994155884,-0.641679,-7.556486,5.27709,-0.799867,-0.029041,0.005779,-2.102216,-3.730356,9.448001,-1.557474,0.135156,-0.47366
9.828904390335083,-0.483653,-8.169433,4.453442,-1.210932,-0.184572,0.055581,-1.580254,-4.870054,9.333074,-2.563498,0.147007,-0.820009
9.852131366729736,-1.268992,-9.285188,4.027253,-1.312001,-0.075514,-0.032305,-2.595447,-6.105525,7.613949,-3.90189,0.605744,-1.42682
9.876406908035278,-1.043925,-9.079275,3.850073,-0.897474,0.06497,-0.114598,-1.427017,-5.995387,7.551697,-3.491624,-0.449816,-2.137761
9.898911476135254,-1.297723,-8.835054,4.055984,-1.974739,-0.410545,-0.500362,-1.69997,-6.014541,6.675375,-2.589997,-1.11788,-1.680623
9.922669649124146,-0.732663,-8.911673,4.309783,-1.883923,-0.887524,-0.584386,-0.8859,-7.245224,5.626661,-2.723423,-1.917107,-1.210967
9.946904420852661,0.07183,-8.964348,4.089505,-1.412004,-0.839453,-0.485182,1.604197,-8.07366,3.581908,-2.203566,-3.074135,-0.425056
9.969615697860718,-0.062252,-9.289976,3.404728,-0.768575,-0.058203,-0.100882,1.546733,-8.662663,4.42471,-1.234827,-0.902294,-0.124913
9.991045475006104,-0.301685,-8.67224,4.07035,-0.31077,0.148328,0.04879,-0.148448,-7.139874,6.881286,-0.233729,0.692298,-0.182705
10.015575170516968,-0.10535,-9.021811,3.71599,-0.591205,-0.021451,-0.04895,0.167603,-8.279572,4.903575,-0.877425,-0.471521,-0.11213
10.041056394577026,-0.215489,-9.289976,2.882766,-0.582017,-0.064861,-0.049882,0.416612,-8.341824,5.095121,-0.777821,-0.27764,-0.094154
10.063969612121582,-0.526751,-9.481522,2.073484,-0.542469,-0.075647,0.040667,0.320839,-8.835054,3.672893,-0.60245,-0.428644,0.060312
10.088093042373657,-0.593792,-9.0266,2.97375,-0.18773,0.065902,0.006578,-0.253798,-8.150278,5.38244,-0.251573,0.043276,-0.028905
10.109737634658813,-0.119716,-9.031389,3.107832,-0.340332,-0.029707,-0.04602,0.627313,-8.054505,5.636238,-0.379406,-0.138488,-0.059798
10.135342359542847,-0.186757,-9.045755,3.083889,-0.55685,0.147796,-0.021652,0.799704,-8.8159,4.084716,-0.915109,-0.207065,-0.059532
10.157758712768555,-0.287319,-9.476733,1.972923,-0.500257,0.211313,0.063304,0.277742,-8.8159,3.763877,-0.693931,-0.055662,0.036477
10.180324077606201,-0.153237,-9.222935,2.269819,-0.217558,0.044996,0.094996,0.818859,-8.801534,3.615429,-0.328806,-0.153535,0.117571
10.205371856689453,-0.598581,-9.165471,2.494885,-0.117156,0.129153,0.110976,-0.545906,-8.236473,4.477386,-0.082859,0.210658,0.067237
10.228909730911255,-0.028732,-9.304342,2.830091,-0.241261,-0.047816,-0.002077,0.53154,-8.28436,5.286667,-0.311761,-0.084824,-0.013592
10.252200365066528,-0.42619,-9.328285,2.782204,-0.376685,0.107848,0.065302,0.536328,-8.547735,4.846111,-0.471287,-0.066448,0.012907
10.275542497634888,-0.732663,-9.73532,1.881938,-0.504385,0.288146,0.049589,0.751818,-9.112796,3.332899,-0.536535,-0.329706,0.02649
10.299084424972534,-0.234644,-9.448001,2.016021,-0.205308,0.153122,0.008975,0.162814,-8.557313,4.309783,-0.265554,0.224906,-0.073514
10.318902254104614,-0.311262,-9.414481,1.80532,-0.253511,0.03208,0.023889,0.349571,-8.782379,3.634583,-0.390192,-0.174974,0.033148
10.34544587135315,-0.316051,-9.371383,2.011232,-0.19319,0.029683,0.030147,0.45971,-8.830266,3.902748,-0.329471,-0.094412,0.014771
10.369440078735352,-0.263376,-9.342651,2.001655,-0.213697,0.089605,0.003116,0.373515,-8.633931,4.228375,-0.328273,0.041678,-0.042088
10.39346194267273,-0.306473,-9.543775,1.575465,-0.270423,0.033811,0.000852,0.507597,-9.122374,3.107832,-0.434535,-0.155266,0.007448
10.416563987731934,-0.584215,-9.371383,1.728702,-0.104905,0.044863,0.003116,0.593792,-9.079275,3.390362,-0.073804,-0.186692,-0.008798
10.439115762710571,-0.191546,-9.38096,2.217144,0.059548,-0.035033,0.003116,0.493231,-8.720127,4.175701,0.062419,-0.051268,-0.019318
10.45981478691101,-0.258587,-9.060121,2.834879,-0.084265,0.010241,0.000453,0.268164,-8.126334,5.803841,-0.076334,0.062451,-0.033965
10.48540449142456,-0.023943,-9.792784,1.585042,-0.405314,-0.015991,0.000852,0.996039,-9.443213,3.002482,-0.50764,-0.191619,0.0181
10.50897765159607,-0.186757,-9.299553,2.557138,-0.10637,0.075223,0.064503,0.277742,-8.720127,4.410344,-0.243716,0.051798,0.046197
10.530547618865967,-0.090984,-9.792784,1.757434,-0.204242,0.084145,0.069163,0.53154,-9.313919,3.251492,-0.270881,0.019041,0.055785
10.555383443832397,-0.622524,-9.38096,1.91067,-0.051374,0.125558,0.096994,0.244221,-8.897306,3.811763,-0.057292,0.077232,0.007181
10.578969955444336,-0.392669,-9.146317,2.15968,-0.116889,0.101722,0.046393,0.086196,-8.557313,4.328937,-0.141716,0.047936,0.012774
10.602300643920898,-0.062252,-9.687433,1.268992,-0.268026,0.008111,0.009774,0.718297,-9.285188,2.76305,-0.324411,-0.080297,-0.005868
10.626436710357666,-0.45971,-9.414481,1.709547,-0.089725,0.061242,0.072492,0.306473,-8.983502,3.476558,-0.129332,0.0245,0.021563
10.649031162261963,-0.488442,-9.59166,1.561099,-0.068286,0.068965,0.059576,0.028732,-9.184626,3.098255,-0.07953,0.03209,0.034612
10.668986558914185,-0.339994,-9.189414,2.308128,-0.028205,0.048192,0.01803,0.038309,-8.542947,4.49654,-0.04371,0.049135,-0.019184
10.696352005004883,0.019155,-9.52462,1.704759,-0.231673,0.007711,0.001385,-0.239432,-8.624354,4.218798,-0.352242,0.189086,-0.052474
10.718973159790039,-0.272953,-9.816728,1.120543,-0.342329,0.027552,-0.014461,0.632101,-9.649124,2.097428,-0.505509,-0.148475,-0.012926
10.742480993270874,-0.24901,-9.409692,1.719124,-0.094652,0.117702,-0.003409,0.172391,-8.911673,3.529233,-0.212024,0.151402,-0.067255
10.766245126724243,-0.368726,-9.682645,1.427017,-0.153508,0.049257,0.031612,0.656045,-9.175049,2.992905,-0.251706,-0.019975,0.001056
10.789117813110352,-0.488442,-9.471945,1.474903,-0.074544,0.041933,0.059975,0.038309,-9.117584,3.136564,-0.135723,0.06072,0.027288
10.80940842628479,-0.062252,-9.615604,1.527578,-0.012625,-0.036232,0.038004,0.608158,-9.289976,2.887554,-0.03865,-0.092814,0.039007
10.835668087005615,-0.430978,-9.242089,2.011232,0.053023,0.066968,0.07156,0.598581,-9.242089,3.007271,-0.047172,-0.018377,0.014505
10.858259916305542,-0.512385,-9.337862,1.790954,-0.045515,0.129553,0.068498,-0.028732,-8.825478,3.783031,-0.035188,0.12184,0.003453
10.880486726760864,-0.191546,-9.610815,1.580254,-0.082401,0.038072,0.020959,0.411824,-9.213358,3.126987,-0.11029,-0.03196,0.004385
10.90546703338623,-0.239432,-9.634759,1.455749,-0.022479,0.021294,0.024954,0.550694,-9.237301,3.083889,-0.02813,-0.016913,-0.011328
10.928989887237549,-0.38788,-9.41927,1.685604,0.03518,0.029949,0.043597,0.2107,-8.897306,3.557965,0.068411,0.029294,0.007048
10.953404903411865,-0.368726,-9.515042,1.618563,-0.005434,0.022359,0.046926,0.421401,-9.112796,3.213182,0.014348,-0.028897,0.02356
10.976933002471924,-0.344783,-9.467155,1.743068,-0.001439,0.052054,0.041866,0.569849,-9.251667,3.064734,0.000766,-0.009722,0.01304
11.000205278396606,-0.335205,-9.462367,1.580254,0.005884,0.041933,0.06437,0.244221,-8.988291,3.404728,0.047904,0.047404,0.029685
11.019526481628418,-0.373515,-9.304342,1.901093,0.0192,0.033811,0.05132,0.373515,-8.945193,3.443038,0.041779,-0.013584,0.031683
11.046866178512573,-0.292107,-9.620393,1.704759,-0.058965,0.022359,0.044129,0.335205,-9.112796,3.476558,-0.026798,0.017443,0.008646
11.070498943328857,-0.464499,-9.653913,1.503635,-0.048578,0.072827,0.05891,0.172391,-9.198992,3.29459,-0.026399,0.030492,0.026756
11.093846082687378,-0.483653,-9.543775,1.45096,0.012676,0.071362,0.048923,0.464499,-9.040966,3.265857,0.09451,0.00892,-0.005203
11.118262529373169,-0.234644,-9.409692,1.690392,0.06594,0.041534,0.026952,0.234644,-8.906884,3.653738,0.077066,0.03968,-0.002539
11.141446113586426,-0.45971,-9.467155,1.484481,-0.0061,0.047526,0.056247,0.421401,-9.112796,3.103044,0.03552,-0.018244,0.027422
11.165569067001343,-0.56506,-9.500676,1.446172,0.016537,0.064171,0.025487,-0.138871,-9.031389,3.237126,0.075069,0.079762,-0.006135
11.189273357391357,-0.253798,-9.476733,1.723913,0.040772,0.010508,-0.010866,0.368726,-9.069698,3.423883,0.055894,-0.017046,-0.040889
11.212749004364014,-0.38788,-9.457579,1.810109,0.024127,0.00598,0.019628,0.493231,-8.997869,3.601063,0.058158,-0.023438,-0.017054
11.235791206359863,-0.407035,-9.529408,1.719124,-0.000641,0.00345,0.025753,0.24901,-8.969136,3.696836,0.015546,-0.017445,0.002654
11.259358167648315,-0.272953,-9.562929,1.767011,-0.016087,0.009309,0.024821,0.488442,-9.017023,3.414306,-0.001631,-0.020641,0.002521
11.280691385269165,-0.287319,-9.433636,1.676027,-0.021813,0.078952,0.057445,0.42619,-9.017023,3.447826,0.006758,0.03715,0.009978
11.30551266670227,-0.359149,-9.500676,1.55631,-0.033531,0.097861,0.072492,0.220278,-8.959559,3.452615,0.004627,0.066179,0.02103
11.329092502593994,-0.502808,-9.404903,1.728702,-0.003037,0.130352,0.075955,0.272953,-9.0266,3.265857,0.016745,0.052464,0.032349
11.35247540473938,-0.363937,-9.505466,1.714336,-0.019682,0.103853,0.040268,0.186757,-8.983502,3.601063,0.020207,0.12224,-0.017986
11.374655961990356,-0.35436,-9.476733,1.685604,-0.025675,0.044463,0.034808,0.373515,-9.060121,3.356842,-3.3e-05,0.002262,0.005717
11.398458242416382,-0.392669,-9.491099,1.62814,-0.01156,0.040602,0.046127,-0.158025,-8.897306,3.763877,0.017144,0.06032,-0.000808
11.419493675231934,-0.277742,-9.625181,1.704759,-0.04232,-0.001344,0.008576,0.339994,-9.184626,3.39994,-0.048903,-0.048871,-0.016255
11.441722393035889,-0.435767,-9.457579,1.7718,-0.012492,0.068299,0.044262,0.253798,-9.031389,3.557965,0.000499,0.019706,-0.006667
11.465513944625854,-0.316051,-9.52462,1.623351,-0.015954,0.066568,0.0412,0.268164,-9.045755,3.466981,0.012883,0.034354,0.004385
11.491437911987305,-0.311262,-9.34744,1.747856,0.016537,0.066834,0.042798,0.330417,-8.906884,3.43346,0.031259,0.029827,0.004252
11.515103816986084,-0.186757,-9.443213,1.589831,0.005751,0.03714,0.04879,-0.229855,-8.820688,3.739934,0.028862,0.091213,0.002787
11.53922963142395,-0.622524,-9.481522,1.599408,-0.012758,0.072693,0.050388,0.10535,-9.304342,2.968961,-0.026798,-0.062587,-0.005069
11.562131404876709,-0.253798,-9.481522,1.867573,0.074062,0.027685,-0.022318,0.153237,-8.954771,3.78782,0.089317,0.046472,-0.064592
11.585878849029541,-0.196335,-9.448001,1.695181,0.04024,0.035808,0.017497,0.617736,-9.021811,3.53881,0.066014,-0.02397,-0.026375
11.609423398971558,-0.397458,-9.424058,1.752645,0.039441,0.048458,0.063571,0.272953,-8.906884,3.572331,0.081461,0.04221,0.018766
11.630632400512695,-0.38788,-9.481522,1.958557,0.011743,0.045262,0.041732,0.081407,-8.806323,3.960212,0.057092,0.04514,0.01051
11.655481100082397,-0.454922,-9.41927,2.025598,-0.032998,0.023424,0.039735,0.349571,-8.964348,3.653738,-0.058091,-0.017578,0.001988
11.679164171218872,-0.301685,-9.500676,1.747856,-0.080137,-0.0092,0.029348,0.067041,-8.99308,3.447826,-0.070075,0.011717,0.013839
11.70262336730957,-0.593792,-9.443213,1.637717,-0.043651,0.063772,0.028949,-0.129293,-8.906884,3.519656,-0.04118,0.041411,-0.006934
11.72647213935852,-0.148448,-9.553351,1.599408,-0.024742,-0.002675,0.00285,0.56506,-9.122374,3.299378,-0.052099,-0.058192,-0.024111
11.749883651733398,-0.272953,-9.448001,1.747856,0.023062,0.036074,0.040401,0.42619,-9.021811,3.462192,0.016345,0.021038,-0.011195
11.769627332687378,-0.383092,-9.395327,1.972923,0.020399,0.064171,0.052385,0.268164,-8.705761,4.118237,0.05363,0.060853,0.008113
11.795713424682617,-0.517174,-9.491099,1.901093,-0.019017,0.04433,0.055315,0.153237,-8.935616,3.744722,0.08186,0.110522,0.014106
11.819609880447388,-0.430978,-9.45279,1.819686,-0.022878,0.056448,0.041333,0.100562,-9.342651,2.978539,0.130597,0.066579,0.043135
11.841441869735718,-0.35436,-9.831093,1.24026,0.18352,0.10372,-0.026845,0.201123,-9.898134,1.958557,0.427277,0.407202,-0.022647
11.86407208442688,-0.17718,-9.213358,2.078273,0.851185,0.07802,-0.027245,0.679988,-8.849421,2.916286,1.170178,0.181629,0.20772
11.885950088500977,-0.632101,-9.309131,2.456576,0.972493,0.406659,0.04373,-0.794915,-7.934789,5.157373,1.509603,1.692863,0.173498
11.90958023071289,-0.545906,-9.586872,2.183623,0.810171,0.155652,-0.005673,-0.191546,-8.787168,3.950634,1.067911,0.457936,0.349935
11.930716514587402,-0.359149,-9.261244,2.552349,1.071165,0.251394,0.0151,-0.699143,-7.786341,5.042446,1.71427,0.678449,0.488422
11.958356618881226,-0.656045,-8.763225,3.237126,1.242675,0.389215,0.037471,-0.608158,-7.135085,6.919596,2.00296,0.494422,0.479234
11.982121229171753,-0.445344,-9.55814,2.786993,0.731074,0.097594,0.052785,-0.454922,-8.226896,4.917941,2.022801,0.06831,0.439419
12.004130601882935,-0.598581,-9.677856,3.083889,0.808307,0.042599,0.110842,-0.536328,-7.441558,4.621045,2.319482,0.118245,0.566054
12.027530670166016,-0.368726,-8.791957,3.371208,0.870892,-0.102812,0.246533,-0.828436,-6.895652,7.024946,2.616163,0.207595,0.672316
12.049079418182373,-0.239432,-8.954771,3.591486,0.671685,-0.100015,0.283951,-0.747029,-7.11593,7.317053,2.499914,0.232896,0.698548
12.074856519699097,-0.368726,-9.52462,3.438249,0.723351,-0.080441,0.357189,-1.268992,-6.862132,4.664143,2.535601,0.234893,0.796821
12.09740686416626,-0.976884,-10.156721,3.122198,1.012575,-0.061132,0.449335,-2.116582,-4.501328,8.116757,3.516991,0.097472,1.105219
12.119325876235962,-0.660833,-8.174221,4.448653,1.21085,-0.163399,0.488484,-1.465326,-4.582736,8.99308,3.129894,0.04727,1.042235
12.141903638839722,-0.828436,-8.088025,4.803013,1.02922,-0.128378,0.54348,-1.158853,-4.98977,8.480695,2.590063,0.168712,0.96913
12.165667057037354,-0.972095,-8.542947,4.702452,0.707238,-0.104942,0.445341,-2.552349,-3.581908,8.667452,2.335861,0.305202,0.910672
12.18920373916626,-0.794915,-8.677029,4.309783,0.72162,-0.174718,0.370105,-1.743068,-3.763877,8.495061,2.00083,0.041678,0.761799
12.21530532836914,-0.881111,-8.226896,4.917941,1.016037,-0.177781,0.450933,-1.513213,-3.395151,8.906884,2.334795,0.082158,0.952218
12.238039016723633,-1.359976,-7.36494,5.755954,1.288083,-0.147953,0.548406,-2.322494,-2.284185,9.112796,2.413893,0.149804,0.98644
12.261526823043823,-0.718297,-8.265205,5.358497,1.172234,-0.082971,0.434954,-2.217144,-2.33686,9.457579,2.202568,0.112519,0.907743
12.285471439361572,-1.508424,-7.154239,6.287494,1.283689,0.046994,0.492479,-2.576292,-0.320839,10.262072,2.287657,0.200671,0.857941
12.308876752853394,-1.728702,-7.288321,6.201298,1.102724,-0.010931,0.447338,-2.657699,-0.550694,10.094469,2.094841,0.262724,0.846889
12.330862522125244,-1.292935,-7.18776,6.167778,1.457063,-0.072717,0.339212,-2.341649,-1.249837,9.069698,2.235458,0.107193,0.871257
12.35564374923706,-1.029559,-7.743243,5.59314,1.72831,-0.047151,0.398202,-2.537983,0.675199,9.59645,2.995536,0.162853,1.038107
12.379202127456665,-1.302512,-7.029735,6.421576,2.003552,0.096929,0.414181,-3.203605,2.566715,10.697838,2.877556,0.200271,0.902017
12.402787446975708,-2.197989,-4.242742,8.490272,0.973292,0.105184,0.203655,-4.14218,5.492579,13.336383,2.265685,0.063516,0.645684
12.425312042236328,-1.043925,-6.617911,7.130296,0.289249,-0.129444,0.124691,-1.029559,0.976884,8.423231,0.910249,-0.279105,0.319841
12.449035167694092,-1.470115,-6.627488,6.996214,0.71656,0.006646,0.205786,-1.87715,1.0966,8.437596,1.322379,0.093344,0.531566
12.469412088394165,-1.915459,-6.359324,6.919596,0.951321,0.088273,0.161177,-2.609813,3.615429,9.52462,1.872996,-0.063519,0.57937
12.495611906051636,-1.173219,-5.957078,7.93,1.135881,-0.091892,0.095795,-2.001655,3.572331,9.299553,1.730915,-0.200008,0.536493
12.519198417663574,-1.364764,-6.014541,7.604372,1.04187,0.020228,0.145331,-2.154891,3.68247,9.414481,1.938245,0.018641,0.538357
12.542660236358643,-1.656872,-5.004137,8.38971,1.028554,0.143801,0.250794,-2.485308,3.744722,9.313919,1.956887,0.122905,0.501738
12.566481113433838,-1.441383,-5.090332,8.202953,0.919362,0.119033,0.251992,-1.465326,3.414306,7.637893,1.834114,-0.034223,0.438487
12.58929443359375,-1.570676,-5.128642,8.054505,0.877683,0.174827,0.276227,-1.9825,5.286667,8.916462,2.276871,0.113717,0.60254
12.609807014465332,-1.752645,-4.549215,8.514215,0.767959,0.126357,0.201258,-2.341649,5.957078,9.122374,1.168047,-0.068579,0.273235
12.636475086212158,-1.685604,-4.381612,8.796745,0.509096,0.026753,0.073824,-2.274607,6.541292,8.509426,0.545657,-0.097341,0.125827
12.65972900390625,-1.867573,-4.635411,8.442386,0.200698,0.009576,0.020959,-1.87715,4.946673,8.116757,0.365624,-0.120511,0.113976
12.680940866470337,-1.618563,-4.999348,8.174221,0.292312,0.072427,0.036006,-1.944191,5.257935,8.116757,0.641132,-0.078566,0.129822
12.705660581588745,-1.958557,-4.434288,8.514215,0.336388,0.098526,0.107913,-1.934614,5.617084,8.504638,0.747927,-0.018777,0.119169
12.729410648345947,-1.52279,-4.458231,8.729704,0.112812,0.052453,0.120164,-1.834052,6.277917,8.35619,0.535004,0.014779,0.102258
12.754116296768188,-1.41744,-4.166123,8.997869,-0.144054,0.099725,0.138007,-2.322494,5.13343,7.57564,-0.225606,0.156994,-0.080305
12.775424480438232,-1.704759,-5.013714,8.011407,-0.30318,0.109978,0.115104,-2.126159,4.908364,7.843804,-0.129065,0.037683,-0.040357
12.800282955169678,-1.786165,-5.056812,8.174221,-0.038458,0.056714,0.045727,-2.183623,5.631449,8.016195,0.12527,-0.008257,0.002121
12.822845697402954,-1.853207,-4.372035,8.662663,0.036112,0.034476,0.075422,-2.039964,5.885248,7.992252,0.162156,-0.016114,0.026889
12.845444679260254,-1.800531,-4.649776,8.447174,-0.091189,0.038738,0.081547,-1.963345,5.890036,8.020985,0.04098,0.032223,0.022362
12.870132446289062,-1.972923,-4.874843,8.155066,-0.180273,0.011972,0.013636,-1.948979,6.282705,8.059294,-0.13852,0.017975,-0.015589
12.889209032058716,-1.814897,-4.908364,8.322669,-0.076941,-0.000678,-0.046952,-2.360803,5.320187,8.040139,-0.237458,-0.08083,-0.0582
12.915504217147827,-1.738279,-4.726395,8.480695,0.089775,-0.002143,-0.076514,-1.867573,6.30186,8.370556,-0.289124,-0.177504,-0.108934
12.940406084060669,-1.570676,-4.055984,8.949982,0.088843,0.013171,-0.103812,-1.891516,6.718472,9.395327,-0.716168,-0.109193,-0.248353
12.963916778564453,-1.412651,-4.889209,8.380133,-0.688412,0.180154,-0.071054,-1.685604,5.583563,8.662663,-1.633108,-0.032626,-0.587112
12.986539602279663,-1.838841,-5.38244,7.791129,-0.502121,0.166438,0.004314,-1.101389,2.90192,6.206087,-1.708743,-0.004529,-0.65023
13.00978946685791,-2.346437,-4.951461,8.135912,-0.051907,0.156851,0.046659,-2.178835,4.31936,8.135912,-0.336396,0.146741,-0.221321
13.029263019561768,-1.709547,-4.74555,8.562101,-0.051374,0.08521,0.038537,-2.001655,5.257935,8.787168,-0.118413,0.071905,-0.063527
13.05549955368042,-1.920248,-4.750338,8.226896,-0.223018,0.095064,0.034409,-2.116582,5.109487,9.074487,-0.432537,0.008388,-0.131305
13.081773042678833,-1.829263,-4.49654,8.571679,-0.415035,0.121963,-0.120989,-2.403901,4.984982,9.749686,-1.090614,-0.039816,-0.379116
13.10443925857544,-1.776588,-5.257935,7.590006,-0.739013,0.073226,-0.265202,-2.968961,4.640199,8.959559,-2.113151,-0.084691,-0.744774
13.12831711769104,-1.652083,-4.922729,8.293938,-0.632618,-0.030239,-0.352555,-2.169257,4.28584,9.122374,-2.724622,-0.341956,-0.926138
13.151045560836792,-1.484481,-5.099909,8.308303,-0.89481,-0.052877,-0.365737,-1.925036,3.912325,9.366594,-2.994004,-0.336097,-0.99578
13.174638748168945,-1.920248,-5.732011,7.417615,-1.317061,-0.027709,-0.408615,-2.025598,1.187585,9.040966,-3.826655,-0.22118,-1.170353
13.197344779968262,-1.709547,-5.966655,7.350574,-1.395492,-0.169392,-0.469602,-2.76305,0.972095,9.87898,-3.570321,-0.213191,-1.123348
13.220114946365356,-1.690392,-6.134257,7.321842,-1.440767,-0.172587,-0.435647,-3.313744,-0.277742,8.969136,-4.110552,-0.278173,-1.359441
13.239056587219238,-0.790127,-6.488617,7.173394,-1.467399,-0.316267,-0.596238,-2.102216,-0.804493,10.300381,-4.402039,-0.483506,-1.7235
13.265617847442627,-0.996039,-7.18776,7.144662,-1.920942,-0.198021,-0.520469,-1.709547,-1.364764,10.065737,-4.402039,-0.213856,-2.142289
13.269233226776123,-0.928998,-7.652258,6.378479,-1.911088,-0.112,-0.384646,-1.465326,-2.815725,8.222108,-4.402039,0.089615,-2.418596
13.31431245803833,-0.933786,-7.144662,6.747204,-1.47672,0.027419,-0.285841,-1.058291,-4.295417,7.829439,-3.437294,0.135289,-1.407911
13.3379967212677,-0.493231,-7.331419,6.526927,-1.330377,0.051787,-0.333646,-0.751818,-4.664143,8.092814,-1.996369,-0.371118,-0.912422
13.359391450881958,-0.790127,-7.920423,5.540465,-1.13623,0.033678,-0.266533,-1.340821,-5.348919,7.805495,-1.70395,-0.110524,-0.706157
13.385498762130737,-0.981673,-8.150278,5.358497,-1.045015,-0.065127,-0.254815,-1.393496,-6.05285,7.417615,-1.549617,-0.455542,-0.644637
13.409033298492432,-0.943364,-7.877325,5.315399,-1.015054,-0.248089,-0.257079,-1.383919,-5.425538,8.696184,-1.397948,-0.515331,-0.654491
13.432255744934082,-0.838013,-8.10718,5.430326,-1.367529,-0.438242,-0.389174,-0.914632,-5.708068,7.412826,-1.988513,-1.332002,-0.700298
13.455560207366943,-0.536328,-7.925211,5.645815,-1.428383,-0.450626,-0.459083,0.593792,-6.751993,6.981848,-2.234193,-1.476214,-0.639311
13.479102849960327,0.191546,-8.471117,5.368074,-1.494164,-0.307745,-0.465341,0.833225,-6.388056,7.886902,-1.913943,-0.820534,-0.455816
13.504259586334229,0.110139,-8.681818,4.53006,-1.704424,0.088806,-0.194094,0.598581,-7.226069,6.747204,-1.995304,-0.480976,-0.372059
13.527435541152954,-0.373515,-7.819861,5.162162,-1.845174,0.327828,-0.204481,-0.196335,-5.98102,8.571679,-2.013147,-0.353808,-0.277648
13.54949164390564,0.220278,-9.404903,2.423056,-2.524423,-0.118258,-0.300489,-0.067041,-7.47029,5.114275,-2.625684,-0.399615,-0.375654
13.575616359710693,0.220278,-9.45279,1.963345,-1.782722,0.044197,-0.197024,0.924209,-8.935616,3.289801,-1.819799,-0.12677,-0.076177
13.597861528396606,-0.378303,-9.184626,2.44221,-1.053804,0.376831,0.019894,-0.07183,-7.738454,5.899613,-1.277438,0.376975,-0.101477
13.620071411132812,0.057464,-8.863787,3.342476,-0.827698,0.328361,-0.035634,1.268992,-8.322669,4.759915,-1.620325,-0.040881,0.059247
13.645567655563354,-0.718297,-9.883768,1.053502,-1.128107,0.325698,0.094331,-0.656045,-9.002657,2.533195,-1.728984,0.140216,0.137545
13.665596008300781,-0.081407,-9.620393,1.656872,-0.547263,-0.057803,-0.024315,0.718297,-9.189414,2.877977,-1.234827,-0.070044,0.003586
13.692038536071777,-0.287319,-9.438424,2.063907,-0.293193,0.101589,0.008842,0.344783,-9.021811,3.601063,-0.426279,0.100801,-0.05567
13.714104652404785,-0.153237,-9.500676,2.154891,-0.190127,0.086009,-0.026712,0.023943,-8.332247,5.339342,-0.312027,0.123039,-0.083368
13.739410400390625,-0.038309,-9.074487,2.873188,-0.164028,0.146997,-0.073185,0.818859,-9.304342,3.170084,-0.619893,-0.050735,-0.060597
13.762249946594238,-0.220278,-9.400115,1.709547,-0.130605,0.204389,0.027617,0.737452,-9.184626,2.992905,-0.369419,0.00426,-0.016654
13.78558087348938,-0.402246,-9.122374,2.073484,-0.135532,0.136344,-0.008735,0.043098,-8.830266,3.534022,-0.138653,0.202269,-0.052474
13.808998107910156,0.502808,-9.764052,1.412651,-0.296922,0.061108,-0.104877,0.009577,-8.700973,3.850073,-0.311628,0.094542,-0.132504
13.83144736289978,0.038309,-9.400115,1.896304,-0.097315,0.196399,-0.013396,-0.143659,-8.485483,4.400767,-0.017877,0.430372,-0.112396
13.856287717819214,-0.325628,-9.342651,1.915459,-0.089858,0.177091,0.039335,0.215489,-8.916462,3.620217,-0.262625,-0.033158,-0.037427
13.879101276397705,-0.272953,-9.38096,1.810109,-0.202644,0.068699,-0.003942,0.45971,-9.002657,3.299378,-0.377942,-0.077101,-0.051542
13.9030921459198,0.07183,-9.481522,1.580254,-0.116756,0.147396,-0.072652,0.751818,-9.34744,2.662488,-0.387795,-0.043944,-0.103342
13.925671815872192,-0.196335,-9.500676,1.80532,-0.091323,0.097062,-0.045221,0.579426,-8.973926,3.481347,-0.174872,0.01398,-0.11213
13.951140642166138,-0.086196,-9.716166,1.599408,-0.075476,0.019962,-0.049482,0.809281,-9.270822,2.978539,-0.175805,-0.066581,-0.094154
13.974639177322388,-0.086196,-9.371383,2.221932,0.014407,0.069631,-0.065328,1.043925,-9.318707,3.155719,-0.090183,-0.087488,-0.122383
13.997873783111572,0.052675,-9.625181,1.575465,-0.080936,0.089738,-0.077845,0.785338,-8.945193,3.447826,-0.022404,0.052464,-0.135034
14.022188663482666,0.172391,-9.45279,1.532367,-0.032066,0.09613,-0.037764,0.158025,-9.505466,1.91067,-0.069942,-0.048205,-0.080039
14.045775175094604,0.019155,-9.424058,1.69997,0.145037,0.049257,-0.08477,0.641679,-9.242089,2.614601,0.113153,-0.071109,-0.127976
14.0690438747406,0.124505,-9.898134,0.957729,0.186449,0.150858,-0.122188,0.632101,-9.160683,3.031214,0.272146,0.138485,-0.187366
14.092019319534302,-0.114928,-8.791957,2.863611,0.690061,0.120764,-0.09955,-0.407035,-8.595622,4.458231,1.228369,1.445318,-0.383111
14.115391492843628,0.110139,-10.013062,1.307301,0.449174,0.041534,-0.078511,1.728702,-8.67224,3.826129,0.955523,-0.322116,0.03155
14.137448787689209,-1.06308,-8.997869,2.748684,0.702045,-0.1626,-0.086101,0.996039,-9.950809,1.59462,0.818502,0.303337,-0.297223
14.159603834152222,0.392669,-8.959559,2.509251,0.665693,-0.381116,-0.296494,1.661661,-8.250839,5.66497,0.982422,-0.417059,-0.198551
14.181328058242798,0.651256,-9.155894,2.772627,0.582467,-0.204013,-0.160271,1.752645,-8.341824,5.181316,0.788274,-0.070576,-0.173117
14.208420038223267,0.220278,-8.935616,2.887554,0.561428,-0.170191,-0.050015,1.077446,-9.366594,2.595447,0.667498,-0.012652,-0.054072
14.230958938598633,0.612947,-9.438424,2.451787,0.63187,-0.178447,-0.055208,1.182796,-8.083237,4.941884,0.941408,-0.072574,0.11078
14.255568027496338,-0.047886,-9.385749,1.992077,0.665426,-0.146355,-0.024049,0.790127,-8.380133,5.138219,1.001863,0.090814,0.009445
14.275733947753906,0.330417,-8.801534,3.428672,0.938804,-0.273922,-0.099417,0.488442,-9.160683,2.595447,1.04301,-0.045942,-0.025576
14.302258014678955,0.584215,-9.562929,2.758261,0.835738,-0.380583,-0.131376,1.245048,-7.537331,6.40721,1.346615,-0.04967,0.066571
14.325461149215698,0.694354,-8.519004,3.835706,0.909509,-0.219992,0.058777,1.608986,-7.57564,6.613122,1.291087,0.131295,0.230358
14.349029779434204,0.684777,-8.509426,4.194855,1.033214,-0.116927,0.092866,0.579426,-8.00183,4.644988,1.302006,0.408534,0.287217
14.37025260925293,0.641679,-8.571679,4.257108,0.782208,-0.094023,0.047591,0.881111,-7.652258,6.081582,0.793468,0.107326,0.28775
14.395587682723999,0.617736,-9.074487,2.983327,0.438921,-0.105075,0.070362,1.230682,-8.169433,3.763877,1.058456,0.118644,0.326632
14.420303106307983,0.679988,-9.0266,3.093466,1.15479,-0.04289,0.12003,-0.138871,-6.65622,6.977059,1.78551,0.46819,0.481098
14.443784236907959,1.043925,-9.333074,3.586697,0.954517,-0.222522,0.087406,-0.019155,-6.431153,7.465501,1.569791,0.600551,0.460858
14.46730351448059,0.502808,-8.217319,4.937096,1.489288,0.005847,0.199128,0.641679,-7.063255,6.632277,1.508804,0.041678,0.49468
14.490411043167114,-0.10535,-6.627488,6.574813,1.488089,0.165905,0.219767,-0.397458,-5.042446,9.141528,2.048102,0.396949,0.684034
14.513913869857788,0.751818,-8.193376,5.075966,0.861837,-0.025179,0.089404,-0.138871,-5.966655,8.121546,1.422915,0.148605,0.551939
14.53690218925476,1.048714,-8.068871,6.062428,1.045998,0.265376,0.118965,0.684777,-5.425538,9.045755,1.600018,0.103464,0.595083
14.560409545898438,0.086196,-7.963521,5.583563,1.013107,0.404528,0.264376,-1.575465,-4.146969,10.563756,2.004692,0.495754,0.608266
14.581252813339233,0.464499,-7.934789,6.076794,0.581935,-0.040759,0.17436,-0.598581,-5.583563,7.973098,1.715468,0.158725,0.528237
14.60564923286438,0.186757,-7.877325,5.674547,0.694988,0.054051,0.170764,-1.034348,-4.831745,8.447174,1.685108,0.085221,0.531299
14.631311178207397,0.407035,-7.336208,6.354535,0.639993,0.048858,0.129219,-0.809281,-3.131775,10.51587,1.3578,0.104396,0.369643
14.653536558151245,0.325628,-7.020157,6.689741,0.331194,0.195866,0.182483,-0.004789,-4.74555,8.772802,1.052464,0.015712,0.38469
14.67754316329956,0.339994,-7.369729,6.048062,0.141708,0.131151,0.231352,-1.154064,-3.735145,9.515042,1.39402,0.177767,0.522111
14.701674699783325,-0.225066,-7.029735,6.167778,0.21934,0.282421,0.249329,-0.78055,-4.467808,8.53337,1.183094,0.114383,0.439952
14.720284700393677,-0.114928,-6.699318,6.97227,0.245572,0.295337,0.170498,-1.125332,-3.476558,9.385749,1.242883,0.049534,0.369643
14.747782468795776,0.215489,-7.427192,6.574813,-0.087727,0.163642,0.1689,-0.943364,-3.261069,8.959559,1.102532,0.0502,0.376301
14.771131038665771,-0.081407,-7.465501,6.297071,-0.15697,0.302794,0.206851,-0.876322,-2.921075,9.716166,1.270181,0.051798,0.506398
14.79465126991272,-0.536328,-7.182971,6.253973,-0.163628,0.375633,0.226825,-1.082234,-3.012059,9.27561,1.336628,0.13449,0.504534
14.815761804580688,0.0,-7.460712,6.225242,-0.055369,0.291875,0.200193,-1.197162,-2.035175,10.113624,1.368719,0.042477,0.504268
14.839468717575073,-0.148448,-7.082409,6.766359,-0.071881,0.416646,0.195133,-0.756606,-1.37913,10.309958,1.154198,0.088816,0.499341
14.864555358886719,-0.483653,-7.350574,6.086371,-0.512108,0.347669,0.209115,-1.288146,-1.886727,9.577294,0.680947,0.305734,0.368578
14.887533187866211,-0.541117,-8.011407,5.779897,-0.413437,0.212645,0.185013,-1.73349,-2.609813,8.471117,0.328073,0.295614,0.218506
14.91040325164795,-0.368726,-7.393672,6.043273,-0.197584,0.209183,0.255721,-1.45096,-2.174046,9.361806,0.840473,0.230099,0.431829
14.929093599319458,-0.536328,-7.54212,5.779897,-0.142855,0.172963,0.228023,-1.853207,-1.728702,9.601238,0.864042,0.215851,0.391748
14.955401420593262,-0.646467,-7.599584,5.751165,0.015605,0.133548,0.177422,-1.757434,-1.173219,10.137567,0.691866,0.125835,0.27976
14.981090068817139,-0.881111,-7.101564,6.340169,0.007615,0.100258,0.14107,-1.69997,-1.819686,8.715339,0.204367,0.093344,0.091072
15.005587339401245,-0.430978,-7.570851,6.546081,0.06554,0.049923,0.138939,-1.441383,-1.043925,9.610815,0.485468,0.038748,0.200929
15.028218030929565,-0.45971,-7.47029,6.139046,0.048895,0.083213,0.235347,-1.575465,-0.45971,10.022639,0.87909,0.150336,0.40533
15.049314498901367,-0.770972,-6.79988,6.665797,-0.065356,0.0679,0.252924,-2.039964,-0.07183,9.936443,0.790938,0.238755,0.367513
15.073663711547852,-0.91942,-7.422403,6.287494,-0.2366,0.069764,0.186344,-1.427017,-0.967307,8.768013,0.376943,0.153799,0.218373
15.097960710525513,-0.943364,-7.743243,5.971443,-0.197984,0.0422,0.173827,-1.838841,-0.751818,9.333074,0.760044,0.216916,0.39987
15.121464729309082,-0.732663,-7.915634,5.626661,0.022796,0.068965,0.19753,-1.604197,-0.632101,9.66349,1.038615,0.190284,0.458328
15.142596244812012,-0.569849,-7.590006,6.000175,0.193906,0.010108,0.237345,-2.509251,0.794915,10.08968,0.9988,0.195611,0.432095
15.165337085723877,-0.713508,-7.211703,6.474251,0.181656,0.005581,0.196065,-1.972923,0.91942,10.233339,0.734078,0.081226,0.351933
15.189053535461426,-0.881111,-7.546908,6.215664,0.050892,0.029283,0.198595,-1.819686,0.229855,9.783207,0.705715,0.170843,0.310786
15.21515965461731,-1.144487,-7.197337,6.325803,0.11148,0.063239,0.167569,-1.886727,0.660833,9.62997,0.596258,0.116913,0.255259
15.238283157348633,-0.732663,-7.36494,6.47904,0.104023,0.013437,0.173295,-1.968134,1.302512,9.874191,0.621292,0.138086,0.287217
15.261996984481812,-1.039137,-7.182971,6.445519,0.08112,0.040336,0.239608,-2.130948,1.24026,9.55814,0.580012,0.196277,0.298269
15.28548264503479,-1.422228,-6.79988,6.51256,0.235186,0.101722,0.213775,-1.944191,0.622524,9.586872,0.650853,0.182561,0.273501
15.308969497680664,-0.842802,-7.436769,6.258762,0.141441,0.061641,0.159579,-2.221932,1.508424,9.931655,0.604114,0.156994,0.227295
15.331703424453735,-1.134909,-7.053678,6.167778,0.134783,0.045262,0.16677,-1.992077,1.072657,9.495888,0.287992,0.106793,0.170436
15.354175329208374,-0.737452,-7.556486,6.081582,0.136648,-0.013994,0.210313,-2.255453,2.05433,9.802361,0.291854,0.14754,0.1723
15.378684759140015,-0.99125,-6.986637,6.608334,0.155024,0.030615,0.23295,-2.303339,1.862784,9.816728,0.224208,0.157394,0.114908
15.40233850479126,-0.699143,-7.642681,6.297071,0.06807,0.035941,0.179553,-1.848418,1.37913,9.184626,0.200373,0.126634,0.094534
15.426023960113525,-1.321667,-7.29311,6.445519,0.229593,0.0932,0.222164,-2.37038,1.901093,9.658702,0.538866,0.159791,0.208653
15.449568510055542,-1.786165,-6.450308,6.97227,0.264881,0.13661,0.184879,-2.399112,1.623351,9.73532,0.487998,0.158859,0.158984
15.471699953079224,-0.943364,-6.723261,7.005791,-0.037526,0.058578,0.072492,-2.126159,2.188412,9.907711,-0.349046,0.073636,-0.11759
15.495584726333618,-1.34561,-7.024946,6.665797,-0.242592,0.139806,0.061174,-2.581081,1.575465,9.692223,-0.70698,0.132626,-0.278713
15.517082452774048,-1.359976,-7.058466,6.488617,-0.278945,0.152057,0.006978,-2.758261,1.743068,10.1232,-1.000998,0.077631,-0.406947
15.54235315322876,-1.599408,-6.411999,6.646643,-0.306376,0.178023,-0.072386,-3.447826,2.418267,11.066565,-1.917405,0.027962,-0.718408
15.56545639038086,-0.632101,-7.369729,6.661008,-0.631952,0.113574,-0.377988,-1.632929,0.076618,8.590834,-3.633439,-0.182031,-1.333607
15.589419603347778,-1.331244,-7.518177,5.91398,-0.535145,0.200261,-0.344432,-2.379958,0.478865,9.754475,-3.107723,-0.105597,-1.20897
15.613643646240234,-1.336033,-7.163816,5.966655,-0.591072,0.103986,-0.449628,-2.844457,-1.082234,10.836709,-3.829451,-0.09055,-1.57769
15.63712191581726,-0.656045,-7.666625,5.473424,-1.103206,-0.031438,-0.532987,-1.446172,-3.232337,7.369729,-4.402039,-0.08802,-2.27212
15.660219669342041,-1.34561,-8.777591,5.818207,-1.364466,0.015701,-0.488777,-0.723086,-2.911498,8.863787,-3.565528,-0.404142,-1.843477
15.679226398468018,-0.900266,-7.163816,5.751165,-0.53368,0.100524,-0.26387,-1.608986,-4.003309,8.768013,-2.633673,0.23436,-1.139327
15.705363035202026,-0.560272,-8.111969,4.587524,-0.928633,0.028085,-0.133373,-1.905882,-4.194855,9.855037,-2.89773,0.137819,-1.154907
15.729363918304443,-0.737452,-8.399287,5.104698,-1.084164,0.101323,-0.181444,-0.895477,-5.832572,5.880459,-3.883514,-0.105997,-1.714712
15.753713130950928,-1.316878,-8.538158,4.970616,-0.905996,0.182284,-0.246426,-0.397458,-5.468636,6.890863,-1.585171,-0.626386,-0.862754
15.77687382698059,-0.833225,-8.040139,5.344131,-0.421693,0.040336,-0.139232,-1.723913,-6.100737,7.901268,-1.108058,0.33969,-0.344894
15.800445318222046,-0.483653,-8.466329,4.937096,-0.630221,-0.10947,-0.201018,-0.976884,-6.072005,8.135912,-1.04534,-0.349547,-0.437307
15.82068943977356,-0.53154,-8.586045,4.348092,-1.010393,-0.077777,-0.259609,-1.398285,-6.474251,7.695356,-1.271712,0.016377,-0.595634
15.848119020462036,-0.593792,-8.624354,4.041618,-1.521062,-0.229979,-0.331116,-1.249837,-6.526927,8.519004,-1.870666,-0.47272,-0.927469
15.870882749557495,-0.656045,-8.499849,4.089505,-1.926401,-0.490441,-0.395699,-0.397458,-6.661008,5.688913,-2.805583,-2.075701,-0.906696
15.893027067184448,-0.430978,-8.485483,4.980193,-1.98872,-0.72387,-0.48132,0.747029,-7.709723,4.812591,-2.808113,-2.176103,-0.597365
15.915568828582764,0.153237,-9.428846,3.471769,-1.898837,-0.403487,-0.476527,1.45096,-7.805495,5.468636,-2.28,-1.088319,-0.431448
15.939308166503906,0.445344,-8.988291,3.347265,-1.530916,-0.116394,-0.324724,1.216316,-8.471117,4.434288,-2.131394,-0.636906,-0.225449
15.963759660720825,0.258587,-9.371383,2.552349,-1.550624,-0.020918,-0.101415,0.857168,-8.542947,3.567542,-1.894369,-0.613869,0.111712
15.987934112548828,0.215489,-9.227723,2.327283,-0.884823,-0.064595,0.018163,0.751818,-8.547735,4.266685,-1.57585,-0.15753,0.091338
16.011651754379272,0.038309,-9.313919,2.193201,-0.954599,-0.075247,0.103918,0.435767,-8.499849,4.161335,-1.398214,-0.158062,0.337418
16.03388023376465,-0.306473,-9.773629,1.393496,-0.888685,-0.001344,0.118965,0.852379,-9.34744,2.696008,-1.338558,-0.006926,0.179624
16.055500745773315,0.124505,-9.768841,1.336033,-0.682953,-0.20934,0.080349,1.278569,-9.333074,2.839668,-1.009254,-0.297081,0.329695
16.08139204978943,0.0,-9.304342,2.011232,-0.325817,-0.068456,0.199261,-0.727874,-8.696184,3.672893,-0.729218,0.229833,0.365648
16.103612899780273,0.114928,-9.610815,1.388708,-0.242859,-0.160204,-0.045221,0.45971,-9.428846,2.279396,-0.671027,-0.048338,0.070699
16.126811504364014,-0.095773,-9.481522,1.647295,-0.095584,-0.063529,0.055448,0.809281,-9.385749,2.566715,-0.352908,-0.254603,0.039406
16.150497674942017,0.100562,-9.471945,1.752645,-0.081602,-0.01972,0.067299,0.78055,-9.270822,3.026425,-0.227737,-0.115984,0.109715
16.17065167427063,0.076618,-9.294765,2.025598,-0.14685,-0.09855,0.115237,0.004789,-8.849421,3.557965,-0.315356,0.000531,0.172433
16.19808077812195,-0.067041,-9.768841,1.120543,-0.276948,-0.083104,0.116701,0.727874,-9.491099,2.111794,-0.423482,-0.221047,0.183086
16.221753120422363,-0.359149,-9.414481,1.580254,-0.148049,-0.082305,0.126422,-0.488442,-9.112796,2.964173,-0.216152,0.028894,0.136347
16.244213104248047,-0.057464,-9.62997,1.350399,-0.163096,-0.067924,0.032411,0.033521,-9.270822,2.954596,-0.260095,-0.071775,0.076158
16.269132137298584,0.057464,-9.55814,1.201951,-0.116223,-0.062198,0.076753,0.63689,-9.409692,2.470942,-0.278205,-0.112788,0.058315
16.28944683074951,-0.287319,-9.38096,1.331244,-0.025408,0.051521,0.087273,0.0,-9.122374,2.791781,-0.009088,0.041145,0.047928
16.315545082092285,-0.067041,-9.55814,1.331244,-0.018084,0.026886,0.049456,0.464499,-9.45279,2.418267,-0.04331,-0.066848,0.049393
16.338510751724243,-0.167603,-9.495888,1.350399,-0.005035,0.013304,0.081281,-0.081407,-9.117584,2.925864,0.016479,0.018242,0.073229
16.359573364257812,-0.239432,-9.491099,1.518001,0.00442,0.052586,0.064636,0.397458,-9.27561,2.734318,-0.021206,-0.017578,0.029685
16.385612964630127,-0.153237,-9.55814,1.312089,-0.007831,0.02662,0.072226,0.225066,-9.218146,2.79657,-0.012018,0.00639,0.036743
16.409296989440918,-0.167603,-9.476733,1.55631,0.034381,-0.024247,0.102054,0.411824,-9.467155,2.44221,0.000233,-0.035555,0.080686
16.432499408721924,-0.411824,-9.553351,1.585042,0.008148,0.010375,0.078218,0.263376,-9.337862,2.686431,-0.022804,-0.0269,0.063641
16.45648741722107,-0.019155,-9.644336,1.336033,-0.025541,-0.012662,0.047059,0.411824,-9.136739,3.007271,0.017943,-0.056062,0.078289
16.47933340072632,-0.507597,-9.342651,1.652083,-0.003703,0.003583,0.086607,-0.469287,-9.27561,2.767838,-0.030926,0.049268,0.052988
16.499428510665894,-0.062252,-9.697011,1.268992,-0.050576,0.01144,0.003915,0.359149,-9.385749,2.533195,-0.030127,-0.09055,0.003586
16.525935888290405,-0.205912,-9.634759,1.532367,0.000558,0.0675,0.046792,0.134082,-9.189414,2.90192,0.044575,0.037816,0.008779
16.54926562309265,-0.047886,-9.644336,1.355187,0.008947,0.088007,0.073025,0.402246,-9.294765,2.662488,0.045774,0.027163,0.072163
16.572766542434692,-0.502808,-9.400115,1.575465,0.035046,0.087607,0.12802,-0.407035,-9.170259,2.839668,0.099304,0.090148,0.071631
16.5958309173584,-0.009577,-9.553351,1.27378,0.036112,0.007711,0.047458,0.363937,-9.079275,2.925864,0.14125,-0.13436,0.080686
16.61921215057373,-0.316051,-9.256455,1.848418,0.059282,-0.001876,0.048657,-0.047886,-9.045755,3.170084,0.066946,0.013182,0.011842
16.642637491226196,-0.019155,-9.716166,1.422228,-0.051774,-0.068057,0.001252,0.330417,-9.299553,2.8684,-0.025201,-0.116516,0.011576
16.66569471359253,-0.253798,-9.534197,1.599408,-0.025941,-0.014393,0.062772,0.138871,-9.13195,3.126987,0.040714,-0.032226,0.036477
16.689184188842773,-0.430978,-9.515042,1.465326,-0.02887,0.028218,0.061973,-0.17718,-9.256455,2.806147,0.027531,0.007589,0.037675
16.710827589035034,-0.378303,-9.538985,1.34561,0.005751,0.02116,0.03614,-0.2107,-9.318707,2.528406,0.079197,-0.007059,0.001722
16.73722004890442,-0.148448,-9.462367,1.494058,0.090974,0.073892,-0.011399,0.320839,-9.155894,2.911498,0.156163,-0.01638,-0.044218
16.760414838790894,-0.186757,-9.41927,1.637717,0.092971,0.074558,0.018829,0.095773,-9.036178,3.275435,0.151769,0.026231,-0.002007
16.779305458068848,-0.296896,-9.457579,1.652083,0.021597,0.032879,0.056114,0.129293,-9.266033,2.997693,0.051766,-0.011719,0.049393
16.80540680885315,-0.311262,-9.55814,1.580254,0.001623,0.023691,0.071028,-0.019155,-9.074487,3.050368,0.053231,0.029028,0.091738
16.83022379875183,-0.292107,-9.582084,1.599408,0.022396,-0.003208,0.08421,-0.028732,-9.246878,3.160507,0.06921,-0.023038,0.133151
16.854127407073975,-0.440556,-9.52462,1.786165,0.053955,0.032213,0.099124,-0.378303,-9.06491,3.534022,0.114751,0.078164,0.103989
16.876309871673584,-0.670411,-9.720954,1.59462,-0.003304,0.063106,0.063571,-0.474076,-9.409692,3.026425,0.032058,0.05819,0.028487
16.900346517562866,-0.694354,-9.816728,1.541945,0.002822,0.107715,0.024155,-0.349571,-9.515042,3.016848,0.057359,0.037816,-0.003205
16.920846462249756,-0.938575,-9.811938,1.55631,0.038242,0.152589,0.036406,-1.201951,-9.510254,2.877977,0.144712,0.141148,-0.03796
16.94573950767517,-0.373515,-9.476733,1.666449,0.164744,0.189075,-0.178648,-0.450133,-9.333074,3.141353,0.247378,0.04261,-0.1863
16.970783948898315,-0.306473,-9.266033,1.62814,0.07819,0.170832,-0.128446,0.090984,-8.959559,2.988116,0.099171,0.068177,-0.168457
16.99442720413208,-0.143659,-9.409692,1.288146,0.031451,0.137942,-0.085968,0.234644,-9.108007,2.696008,0.098239,0.041278,-0.106804
17.015888214111328,-0.186757,-9.443213,1.412651,0.123065,0.102921,-0.031373,-0.014366,-9.20378,2.820513,0.221811,0.038216,-0.042088
17.039509534835815,0.225066,-9.45279,1.915459,0.211084,0.029017,-0.038031,0.679988,-9.012235,3.572331,0.339392,-0.059657,-0.008398
17.065191507339478,0.617736,-9.682645,1.977711,0.252896,0.052054,0.001918,1.24026,-9.256455,3.409517,0.387196,-0.097208,0.109848
17.087698698043823,-0.560272,-9.428846,2.557138,0.375803,0.293473,0.294337,0.416612,-8.930827,3.926691,0.613169,0.135422,0.260319
17.111252546310425,-0.938575,-9.34744,2.715163,0.221204,0.21118,0.248131,-1.216316,-8.811111,4.573158,0.235793,0.313058,0.223566
17.133971691131592,-0.699143,-9.840671,2.226721,0.002422,0.127289,0.14067,-0.541117,-9.371383,3.897959,-0.139319,0.02703,0.210117
17.15782070159912,-0.914632,-9.902923,2.111794,0.030652,0.239277,0.144665,-0.828436,-9.414481,3.653738,-0.011751,0.332499,0.111845
17.181670427322388,-0.933786,-10.132778,1.848418,0.086579,0.40799,0.186877,-0.45971,-9.917289,3.069523,0.000766,0.365789,0.170569
17.20508360862732,-1.73349,-10.238128,0.943364,0.239048,0.646347,0.328293,-1.144487,-9.946021,1.9825,0.381071,0.619193,0.300932
17.228405952453613,-1.383919,-9.831093,1.867573,0.88048,0.377896,0.320703,-2.049541,-9.38096,2.696008,0.959651,0.876192,0.380429
17.249613761901855,-0.392669,-10.065737,1.719124,1.345874,0.184681,0.388614,-0.301685,-9.917289,1.158853,1.655946,-0.462866,0.786301
17.27370023727417,0.430978,-9.998695,1.738279,2.408492,0.404395,0.560125,0.737452,-9.20378,1.154064,3.418719,-0.113986,0.715726
17.298296689987183,0.761395,-9.266033,2.403901,3.755273,1.053417,0.829907,1.048714,-7.245224,3.036002,4.324607,1.225071,0.453933
17.321540117263794,-0.679988,-7.920423,3.0791,4.331323,2.149724,1.272265,-0.871534,-5.166951,4.027253,4.324607,2.748556,0.451137
17.345421075820923,-2.557138,-6.215664,4.328937,4.331323,2.56039,1.752839,-4.017675,-3.452615,5.952289,4.324607,4.326103,0.663927
17.36774754524231,-2.949807,-5.698491,5.880459,4.331323,1.878211,0.834168,-4.113448,-2.815725,7.302687,4.324607,2.209923,0.277629
17.392387866973877,-2.035175,-5.684124,6.622699,4.331323,1.393775,0.355724,-2.705586,-2.523617,8.040139,4.324607,1.452376,0.029419
17.41538119316101,-2.614601,-4.577947,6.996214,4.331323,1.685129,0.312314,-3.352053,-1.201951,8.46154,4.324607,2.058387,-0.062994
17.43910002708435,-4.099082,-3.826129,7.182971,4.331323,1.854775,0.522174,-5.200471,-0.74224,8.53337,4.324607,2.434032,0.064573
17.459871530532837,-4.77907,-2.945018,7.508599,4.092834,1.523339,0.490881,-5.995387,0.062252,7.920423,4.091976,2.045737,0.148597
17.48564648628235,-5.071177,-1.690392,8.53337,3.394542,0.526902,0.1693,-6.225242,0.799704,8.581256,3.764535,1.509102,0.147399
17.509212970733643,-4.486963,-1.585042,8.609988,2.618352,-0.052877,-0.041226,-5.411171,1.259414,8.973926,2.62575,-0.100404,0.094268
17.533047914505005,-3.993732,-1.901093,8.28436,2.021528,-0.059002,-0.16107,-4.644988,0.70872,7.93,2.046104,0.000531,0.003187
17.5558443069458,-4.012887,-1.302512,8.322669,2.071464,0.090404,-0.106208,-4.664143,1.479692,7.532542,2.113616,0.174838,0.06737
17.579336404800415,-4.453442,-0.014366,8.92125,2.305293,0.070696,0.0408,-5.339342,3.021636,8.882941,2.28739,0.12437,0.268708
17.603965044021606,-4.362458,0.483653,9.778418,1.95162,-0.443036,0.184347,-5.449481,3.692047,10.391365,1.828388,-0.67965,0.424106
17.62720513343811,-4.118237,0.976884,9.744898,0.435326,-0.473662,0.219767,-4.951461,3.668104,9.764052,1.023036,-1.093778,0.415583
17.650625228881836,-4.592313,0.162814,9.361806,-0.135665,-0.514543,0.296334,-5.473424,2.638545,8.466329,-0.226539,-0.694564,0.430231
17.671054363250732,-4.95625,0.047886,9.270822,-0.263232,-0.521999,0.268104,-6.311437,2.533195,8.193376,-0.234928,-0.497621,0.34088
17.69591999053955,-5.104698,0.023943,9.170259,-0.070416,-0.33997,-0.000879,-6.05285,2.437422,7.867748,-0.013349,-0.386965,0.041936
17.720688104629517,-4.702452,0.028732,9.256455,0.20376,-0.249953,-0.185705,-5.27709,2.518829,8.030561,0.252039,-0.420654,-0.064858
17.743911504745483,-4.041618,-0.062252,9.697011,0.453835,-0.469268,-0.198755,-4.616256,2.791781,8.882941,0.527946,-0.496422,0.005583
17.767406463623047,-2.964173,0.541117,10.372211,0.355829,-0.537579,0.039868,-3.639372,3.414306,9.965176,0.564699,-0.616666,0.162579
17.789231538772583,-2.892343,0.416612,9.998695,0.125595,-0.422662,0.009907,-3.979366,3.356842,9.189414,0.136189,-0.444223,0.114908
17.813848972320557,-3.179662,0.067041,9.438424,-0.007165,-0.319729,-0.092759,-4.118237,2.772627,8.662663,0.03552,-0.432772,-0.007067
17.83768105506897,-2.988116,-0.478865,9.084064,-0.023944,-0.406283,-0.143227,-3.466981,2.183623,8.542947,0.024335,-0.562469,0.015171
17.859941244125366,-2.552349,-0.579426,9.170259,0.000158,-0.510548,-0.086368,-3.246703,2.274607,8.892518,0.034322,-0.480709,0.082683
17.884816646575928,-2.107005,-0.435767,9.069698,-0.056168,-0.48325,-0.067592,-2.825302,2.365592,8.538158,-0.037318,-0.410534,0.076957
17.90835404396057,-2.571504,-0.440556,8.56689,-0.091589,-0.435712,-0.008203,-3.050368,2.035175,7.906057,-0.063284,-0.549287,0.142605
17.93217182159424,-1.963345,-0.838013,8.562101,0.012409,-0.595637,0.048923,-2.384746,1.824475,8.217319,0.055894,-0.600553,0.248867
17.95572018623352,-1.69997,-0.718297,8.538158,0.092971,-0.577394,0.167435,-2.111794,2.035175,8.241262,0.114618,-0.489365,0.354862
17.977484226226807,-1.570676,-0.545906,8.375344,0.069801,-0.587248,0.302726,-2.102216,2.083062,7.882113,0.073871,-0.423584,0.483095
18.00263285636902,-1.7718,-0.440556,8.231685,0.121201,-0.566608,0.388082,-2.662488,2.130948,7.479867,0.150038,-0.384568,0.519049
18.026318788528442,-1.834052,-0.339994,8.365767,0.297638,-0.481918,0.283551,-2.576292,2.15968,7.704934,0.323546,-0.347549,0.39987
18.049468755722046,-1.369553,0.234644,9.404903,0.625878,-0.511613,0.253324,-2.145314,3.299378,9.069698,0.641132,-0.338627,0.427701
18.071088314056396,-0.74224,0.70872,9.907711,0.529869,-0.5987,0.291807,-1.656872,3.965,9.515042,0.521422,-0.365925,0.446476
18.095829486846924,-0.694354,0.785338,9.802361,0.30616,-0.378852,0.323233,-1.709547,3.744722,8.806323,0.273478,-0.195347,0.388951
18.119438886642456,-1.479692,0.785338,9.304342,0.264082,-0.113997,0.347867,-2.499674,3.644161,8.097603,0.273611,0.011584,0.343677
18.143056631088257,-2.016021,1.06308,9.328285,0.417216,-0.105208,0.288478,-3.332899,3.802186,8.384922,0.423948,-0.038085,0.281092
18.1658616065979,-1.513213,0.593792,9.409692,0.366615,-0.284042,0.064769,-2.312917,3.495713,8.892518,0.365491,-0.199741,0.106785
18.18952202796936,-0.914632,0.63689,9.792784,0.238914,-0.49843,0.275029,-1.7718,3.806975,8.729704,0.2559,-0.283765,0.412121
18.21367621421814,-0.986461,1.412651,10.343478,0.399239,-0.615744,0.371969,-2.332071,4.616256,9.112796,0.411565,-0.45967,0.552072
18.23707914352417,-0.268164,1.331244,10.554179,0.43932,-0.840252,0.206585,-1.685604,4.501328,9.060121,0.49479,-0.600154,0.402134
18.26077103614807,0.114928,1.278569,10.836709,0.579804,-0.608021,0.015766,-1.316878,4.735972,9.749686,0.6402,-0.427845,0.193073
18.283846616744995,-0.996039,1.230682,10.736148,0.597648,-0.248622,-0.055741,-2.389535,4.539638,9.515042,0.625553,-0.241287,0.0442
18.30563521385193,-0.905054,2.322494,11.96683,0.65464,-0.437177,-0.256679,-2.672065,4.764704,10.075315,0.66337,-0.368455,-0.011594
18.3302903175354,-0.852379,3.419094,12.268515,0.482731,-0.328385,-0.374127,-2.394324,7.278744,10.90375,0.566163,-0.507608,-0.260204
18.354642391204834,-0.512385,3.419094,11.578949,0.097365,-0.186569,-0.48678,-1.968134,6.847766,9.859825,0.121542,-0.411466,-0.428119
18.376892566680908,-0.60337,2.662488,10.597277,-0.118088,-0.039427,-0.511415,-1.575465,5.870882,8.930827,-0.083791,-0.265922,-0.476722
18.39947509765625,-0.368726,2.523617,10.348267,-0.080403,-0.081639,-0.417004,-1.427017,5.727222,8.916462,-0.022404,-0.217718,-0.372458
18.42385768890381,-0.253798,2.739106,10.214185,-0.03726,-0.094556,-0.350424,-1.513213,5.832572,8.495061,0.015147,-0.195613,-0.319727
18.44666075706482,0.244221,1.637717,9.55814,0.091639,-0.095887,-0.352688,-1.019982,5.31061,8.308303,0.060421,-0.237692,-0.334641
18.470818996429443,0.023943,1.206739,9.371383,0.189379,-0.0863,-0.237238,-0.823647,4.118237,8.102391,0.228603,-0.138754,-0.173916
18.493666410446167,-0.095773,1.364764,9.323497,0.404965,-0.133438,-0.142827,-1.019982,4.242742,7.791129,0.467225,-0.135425,-0.062195
18.509832859039307,-0.229855,2.068696,9.730532,0.668223,-0.152081,-0.10501,-1.398285,5.214837,8.748858,0.726488,-0.134227,-0.001874
18.539612293243408,0.335205,2.552349,10.376999,0.566888,-0.2654,-0.130577,-0.804493,5.966655,9.62997,0.589866,-0.191219,-0.018785
18.563884973526,0.598581,2.676854,10.558968,0.227995,-0.212003,-0.09236,-0.737452,6.038485,9.280398,0.231532,-0.082827,-0.018252
18.588019132614136,0.493231,2.44221,10.099257,-0.011959,0.092801,-0.132707,-0.866745,5.59314,8.696184,-0.020407,0.107858,-0.175781
18.61149311065674,0.201123,2.097428,9.768841,-0.025541,0.23435,-0.166929,-0.972095,5.162162,8.432808,-0.040114,0.187355,-0.245823
18.635672092437744,-0.277742,2.044752,9.787995,0.001091,0.290144,-0.128579,-1.599408,5.114275,8.681818,-0.005626,0.23476,-0.23224
18.659538507461548,-0.723086,1.958557,9.615604,-0.067886,0.35739,-0.125916,-2.078273,4.846111,8.360978,-0.079397,0.258063,-0.265397
18.682053804397583,-1.039137,1.632929,9.309131,-0.113827,0.365912,-0.174786,-2.130948,4.395978,7.906057,-0.112554,0.229167,-0.308142
18.706753969192505,-1.130121,1.666449,9.361806,0.004153,0.242872,-0.172789,-2.154891,4.477386,7.920423,0.019009,0.14208,-0.253546
18.72989821434021,-0.967307,2.130948,9.658702,0.188047,-0.043955,-0.096488,-2.193201,5.047235,8.28436,0.207031,-0.135159,-0.073514
18.752781867980957,-0.469287,2.413478,9.893346,0.187648,-0.196024,-0.124984,-1.637717,5.454269,8.504638,0.220347,-0.336896,-0.057934
18.776458024978638,0.057464,2.882766,10.286015,0.146235,-0.210938,-0.118859,-1.211528,6.119891,9.060121,0.173341,-0.295084,-0.057401
18.799700498580933,0.07183,2.758261,10.218973,-0.026207,-0.051545,-0.102746,-1.316878,5.909191,8.88773,-0.024535,-0.109725,-0.100146
18.822338342666626,0.076618,2.37038,9.936443,-0.179874,0.058845,-0.116329,-1.154064,5.463847,8.787168,-0.180199,-0.03915,-0.162731
18.845558881759644,-0.411824,1.680815,9.404903,-0.27242,0.20319,-0.049749,-1.364764,4.846111,8.327457,-0.303505,0.062318,-0.178843
18.870946407318115,-0.794915,1.905882,9.38096,-0.171884,0.164707,0.046393,-1.757434,4.764704,7.939578,-0.188055,0.116114,-0.021581
18.8942928314209,-0.727874,2.269819,9.644336,-0.068286,-0.028375,0.126289,-1.790954,5.195683,8.250839,-0.080861,-0.034223,0.114242
18.917699098587036,-0.407035,2.308128,9.845459,-0.074145,-0.170191,0.167835,-1.656872,5.315399,8.56689,-0.089916,-0.120511,0.186814
18.939589977264404,-0.272953,2.298551,9.979541,-0.127675,-0.17312,0.15878,-1.685604,5.339342,8.6052,-0.137188,-0.120644,0.172832
18.964797019958496,-0.076618,2.221932,10.01785,-0.149247,-0.112133,0.083944,-1.479692,5.27709,8.633931,-0.150504,-0.089352,0.073761
18.98805284500122,-0.363937,1.853207,9.59166,-0.140325,0.103187,0.000186,-1.470115,4.817379,8.408865,-0.147841,0.054594,-0.055537
19.010194301605225,-0.440556,1.671238,9.615604,-0.147516,0.009176,0.049456,-1.508424,4.621045,8.447174,-0.152502,-0.019043,0.014239
19.03240704536438,-0.656045,1.704759,9.586872,-0.131803,-0.027842,0.0922,-1.925036,4.616256,8.384922,-0.132794,-0.03196,0.065905
19.05560040473938,-0.450133,1.666449,9.548563,-0.112495,-0.080707,0.037604,-1.795743,4.558792,8.341824,-0.100702,-0.119845,0.026356
19.082291841506958,0.009577,1.599408,9.764052,-0.073346,-0.098151,-0.07172,-1.230682,4.640199,8.681818,-0.053697,-0.190687,-0.063926
19.10432457923889,0.474076,1.747856,9.969964,-0.058698,-0.069522,-0.111269,-0.608158,4.913152,8.906884,-0.039582,-0.176971,-0.107203
19.128011226654053,0.067041,1.680815,9.764052,-0.162963,0.097861,-0.001411,-1.115755,4.697663,8.667452,-0.16635,0.039414,-0.066856
19.152406930923462,-0.081407,1.561099,9.606027,-0.195187,0.124226,0.013236,-1.211528,4.544426,8.571679,-0.194846,0.062318,-0.062728
19.17568802833557,-0.201123,1.359976,9.471945,-0.2113,0.12689,0.031612,-1.292935,4.266685,8.380133,-0.218149,0.066446,-0.051675
19.199625492095947,-0.081407,1.082234,9.342651,-0.172018,0.101456,0.051719,-1.039137,4.008098,8.375344,-0.177935,0.051398,-0.019451
19.219295978546143,-0.28253,1.182796,9.486311,-0.118088,0.101855,0.13095,-1.278569,4.132603,8.519004,-0.134392,0.077498,0.058581
19.245973587036133,-0.306473,1.225894,9.491099,-0.115824,0.06031,0.196065,-1.302512,4.166123,8.471117,-0.137854,0.04514,0.128091
19.2710382938385,-0.627313,1.259414,9.457579,-0.052173,0.112242,0.266773,-1.661661,4.156546,8.495061,-0.082726,0.142879,0.185616
19.2935631275177,-1.000827,1.359976,9.548563,-0.049244,0.115571,0.296734,-2.107005,4.218798,8.432808,-0.085655,0.153133,0.213579
19.315792560577393,-1.182796,1.45096,9.59166,-0.019949,0.059111,0.28981,-2.37038,4.290628,8.346612,-0.048104,0.098138,0.225298
19.34129571914673,-1.015193,1.484481,9.749686,0.040639,-0.014926,0.236546,-2.221932,4.386401,8.504638,0.023936,0.015712,0.199997
19.365556240081787,-0.876322,1.637717,9.869402,0.078057,-0.021318,0.182216,-2.116582,4.597102,8.715339,0.072539,-0.004529,0.154057
